time,seconds_elapsed,z,y,x
1752116313542624000,0.0546240234375,0.5324519872665405,0.28662800788879395,0.029234999790787697
1752116313552477400,0.0644775390625,1.2346220016479492,-0.37617599964141846,-0.13022999465465546
1752116313562331000,0.074330810546875,1.7764480113983154,-1.0460460186004639,-0.16560199856758118
1752116313572184300,0.084184326171875,1.1276639699935913,0.29838699102401733,0.10807300359010696
1752116313582038000,0.0940380859375,0.7784910202026367,-0.6173290014266968,0.5173370242118835
1752116313591891500,0.103891357421875,0.2600780129432678,-1.1350899934768677,1.171584963798523
1752116313601745200,0.1137451171875,-0.2637979984283447,-1.2270480394363403,1.6510790586471558
1752116313611598600,0.1235986328125,-1.094527006149292,-2.185792922973633,1.8723269701004028
1752116313621452300,0.133452392578125,-2.1719439029693604,-3.259268045425415,1.0952969789505005
1752116313631305700,0.1433056640625,-4.04063606262207,-2.6049129962921143,0.12812000513076782
1752116313641159200,0.1531591796875,-5.575422763824463,-1.85275399684906,-0.6335819959640503
1752116313651012900,0.163012939453125,-6.7926859855651855,0.6356319785118103,-0.9810130000114441
1752116313660866600,0.172866455078125,-7.0721659660339355,4.017271041870117,-0.6536639928817749
1752116313670719700,0.1827197265625,-6.902238845825195,4.751760005950928,-0.7401270270347595
1752116313680573400,0.192573486328125,-5.775812149047852,2.611665964126587,-1.8900330066680908
1752116313690427100,0.20242724609375,-1.0633660554885864,0.7559239864349365,-2.3112120628356934
1752116313700280300,0.2122802734375,4.069666862487793,-0.07703199982643127,-2.057737112045288
1752116313710134300,0.22213427734375,6.6575469970703125,-0.03164299950003624,-1.344014048576355
1752116313719987700,0.23198779296875,7.649750232696533,0.7621350288391113,-0.7400299906730652
1752116313729841400,0.24184130859375,6.8722710609436035,1.4373830556869507,-0.5463370084762573
1752116313739694800,0.25169482421875,3.1669209003448486,2.0350229740142822,0.6208609938621521
1752116313749548300,0.26154833984375,-3.0977981090545654,2.263705015182495,2.5909199714660645
1752116313759402000,0.271402099609375,-7.475797176361084,1.9080660343170166,5.088440895080566
1752116313769255400,0.28125537109375,-5.241197109222412,-0.12109000235795975,4.025504112243652
1752116313779109000,0.291109130859375,-0.9007369875907898,-0.6651859879493713,3.8334569931030273
1752116313803740200,0.315740234375,-0.8973109722137451,-0.7566220164299011,4.04243278503418
1752116313813593000,0.325593017578125,-0.9098449945449829,-0.7534379959106445,4.151295185089111
1752116313823447000,0.335447021484375,-0.9378550052642822,-0.7182440161705017,4.3382158279418945
1752116313833300700,0.34530078125,-0.9736599922180176,-0.653590977191925,4.570540904998779
1752116313843154400,0.355154541015625,-3.0527799129486084,2.159684896469116,2.8492441177368164
1752116313853008000,0.3650078125,-2.6310529708862305,1.4211690425872803,0.7902230024337769
1752116313862861300,0.374861328125,-2.341826915740967,1.0838170051574707,-1.1676629781723022
1752116313872715000,0.384715087890625,-2.217278003692627,1.0364320278167725,-1.8614239692687988
1752116313882568700,0.394568603515625,-2.528994083404541,0.35174301266670227,-0.702003002166748
1752116313892422100,0.404422119140625,1.076429009437561,-0.8131719827651978,1.2938450574874878
1752116313902275800,0.41427587890625,8.19478702545166,-1.3779100179672241,3.804029941558838
1752116313912129300,0.42412939453125,8.325225830078125,-0.4217750132083893,4.5554609298706055
1752116313921983000,0.43398291015625,6.888484954833984,0.16409200429916382,2.956428050994873
1752116313931836400,0.44383642578125,5.589820861816406,0.14760200679302216,1.1563990116119385
1752116313941689900,0.45368994140625,3.84586501121521,0.6314560174942017,-0.004292000085115433
1752116313951543600,0.46354345703125,2.3548688888549805,1.0129159688949585,-0.2040880024433136
1752116313961397000,0.47339697265625,1.1885550022125244,0.9930869936943054,0.14390599727630615
1752116313971250700,0.483250732421875,0.4727320075035095,0.8418530225753784,0.49265098571777344
1752116313981104000,0.493104248046875,0.6620619893074036,0.8392450213432312,0.7656409740447998
1752116313990957600,0.50295751953125,0.8685929775238037,1.2196389436721802,0.6739889979362488
1752116314000811300,0.512811279296875,0.741021990776062,1.4774119853973389,0.30847200751304626
1752116314010665000,0.5226650390625,0.43900299072265625,1.4173029661178589,-0.09595400094985962
1752116314020518400,0.532518310546875,-0.10975900292396545,1.258100986480713,-0.23496100306510925
1752116314030372000,0.5423720703125,-0.926904022693634,1.3061909675598145,-0.02025200054049492
1752116314040225500,0.5522255859375,-1.1544760465621948,1.4985510110855103,0.262814998626709
1752116314050079000,0.562078857421875,-1.4841879606246948,1.6461910009384155,0.19393299520015717
1752116314059932700,0.5719326171875,-1.4305839538574219,1.7062760591506958,0.3172920048236847
1752116314069786000,0.5817861328125,-0.993166983127594,1.6460989713668823,0.5341129899024963
1752116314079639800,0.591639892578125,-0.5584179759025574,1.4667919874191284,0.7870690226554871
1752116314089493200,0.6014931640625,0.5633029937744141,0.8182870149612427,0.7046980261802673
1752116314099347000,0.611346923828125,1.3257770538330078,0.11371000111103058,0.4875189960002899
1752116314109200600,0.62120068359375,1.4049320220947266,0.594514012336731,0.7408000230789185
1752116314119054000,0.63105419921875,0.6007170081138611,0.8113369941711426,0.8666790127754211
1752116314128907800,0.64090771484375,0.3649739921092987,0.724943995475769,0.9671930074691772
1752116314138761200,0.65076123046875,0.35179901123046875,0.8419319987297058,1.2475179433822632
1752116314148615000,0.660614990234375,-0.3270629942417145,0.96635502576828,1.3206590414047241
1752116314158468400,0.67046826171875,-0.8468809723854065,0.8818789720535278,1.1602840423583984
1752116314168322000,0.680322021484375,-1.3234829902648926,0.521818995475769,0.7918620109558105
1752116314178175500,0.690175537109375,-1.6559369564056396,0.2456430047750473,1.2286180257797241
1752116314188029000,0.70002880859375,-1.2964240312576294,0.2228509932756424,1.5117340087890625
1752116314197882600,0.709882568359375,-0.06643400341272354,0.16978999972343445,1.054250955581665
1752116314207736300,0.719736328125,0.5623369812965393,0.2543579936027527,0.6160569787025452
1752116314217589800,0.72958984375,0.9149839878082275,0.26969000697135925,0.3753550052642822
1752116314227443500,0.739443359375,1.5578500032424927,0.2690280079841614,0.6824870109558105
1752116314237297000,0.749296875,1.2768510580062866,0.7361890077590942,0.7012479901313782
1752116314247150600,0.759150634765625,0.5438989996910095,0.9953020215034485,0.030063999816775322
1752116314257004000,0.769004150390625,0.28373101353645325,0.8225820064544678,0.20824599266052246
1752116314266857700,0.778857666015625,0.17497900128364563,0.8080120086669922,0.6993259787559509
1752116314276711200,0.788711181640625,0.06988199800252914,0.7277920246124268,0.8213919997215271
1752116314286564600,0.798564697265625,-0.05395499989390373,0.7325850129127502,0.8703439831733704
1752116314296418300,0.808418212890625,0.6151120066642761,0.38620999455451965,1.209028959274292
1752116314306272000,0.81827197265625,1.2712409496307373,0.06732700020074844,1.5285359621047974
1752116314316125700,0.828125732421875,1.5184760093688965,0.028371000662446022,1.187116026878357
1752116314325979100,0.837979248046875,1.1906139850616455,0.0706700012087822,1.265733003616333
1752116314335832600,0.84783251953125,0.21778100728988647,0.5256950259208679,1.4082540273666382
1752116314345686300,0.857686279296875,-0.4016050100326538,1.3292629718780518,0.4615989923477173
1752116314355539700,0.867539794921875,-0.4368849992752075,1.8815640211105347,-0.3636449873447418
1752116314365393400,0.877393310546875,-0.021940000355243683,1.5908130407333374,0.0019920000340789557
1752116314375246800,0.887246826171875,0.3329949975013733,1.0468050241470337,0.7513459920883179
1752116314385100500,0.8971005859375,0.49238499999046326,0.7678470015525818,1.2131229639053345
1752116314394954200,0.906954345703125,-0.1826069951057434,0.5285580158233643,1.0954289436340332
1752116314404807700,0.9168076171875,-1.4372789859771729,0.5823749899864197,1.3282500505447388
1752116314414661400,0.926661376953125,-2.4728798866271973,1.1003259420394897,1.2084399461746216
1752116314424514800,0.936514892578125,-2.9238369464874268,1.4302129745483398,0.6104699969291687
1752116314434368500,0.946368408203125,-2.318326950073242,1.0878390073776245,-0.4196859896183014
1752116314444222000,0.956221923828125,-0.84859299659729,0.6874060034751892,-1.4070810079574585
1752116314454075600,0.96607568359375,0.733439028263092,0.33919501304626465,-1.1071250438690186
1752116314463929000,0.97592919921875,1.0014749765396118,-0.342274010181427,0.016085000708699226
1752116314473782800,0.98578271484375,0.46942898631095886,-0.5413349866867065,0.9004740118980408
1752116314483636500,0.995636474609375,0.10029199719429016,0.18004700541496277,1.1311019659042358
1752116314493490000,1.005489990234375,-0.8473309874534607,0.5900670289993286,0.8746650218963623
1752116314503343600,1.015343505859375,-1.1441500186920166,0.6525840163230896,0.5584139823913574
1752116314513197000,1.025197021484375,-0.7902989983558655,0.8468999862670898,0.1553719937801361
1752116314523050500,1.035050537109375,-0.4729579985141754,0.7213109731674194,0.129721999168396
1752116314532904200,1.044904296875,-0.2720069885253906,0.4108459949493408,0.3792929947376251
1752116314542758000,1.0547578125,-0.03913699835538864,0.12811100482940674,0.4361709952354431
1752116314552611300,1.064611328125,0.02267800085246563,0.0607060007750988,0.4056209921836853
1752116314562465000,1.074465087890625,0.022456999868154526,0.35683301091194153,0.1688860058784485
1752116314572318500,1.084318359375,0.24753199517726898,0.36805498600006104,0.06124899908900261
1752116314582172200,1.094172119140625,0.7056729793548584,0.123089998960495,0.313632994890213
1752116314592025900,1.10402587890625,0.9733710289001465,-0.15497300028800964,0.6637349724769592
1752116314601879300,1.11387939453125,1.0171840190887451,-0.385578989982605,0.9172930121421814
1752116314611733000,1.12373291015625,1.0986050367355347,-0.3411250114440918,0.825838029384613
1752116314621586400,1.13358642578125,1.0798399448394775,-0.08181499689817429,0.37794798612594604
1752116314631440100,1.143440185546875,0.6804360151290894,0.028853999450802803,0.04867300018668175
1752116314641293600,1.15329345703125,-0.2695139944553375,0.3144730031490326,-0.19627100229263306
1752116314651147300,1.163147216796875,-0.8051549792289734,0.9633240103721619,-0.4971590042114258
1752116314661001000,1.1730009765625,-1.2224609851837158,0.8632699847221375,-0.5026670098304749
1752116314670854400,1.1828544921875,-1.3769539594650269,0.42413198947906494,-0.30956101417541504
1752116314700420600,1.212420654296875,-1.3796629905700684,0.401544988155365,-0.3531160056591034
1752116314710271500,1.222271484375,-0.4591050148010254,-0.9335690140724182,-0.06092499941587448
1752116314720125000,1.232125,-0.09497799724340439,-1.058205008506775,0.24362799525260925
1752116314729978600,1.241978515625,0.1594409942626953,-0.7784249782562256,0.33808600902557373
1752116314739832300,1.251832275390625,0.3726550042629242,-0.5535380244255066,0.25950801372528076
1752116314749686000,1.26168603515625,0.2697179913520813,-0.6237679719924927,0.12230200320482254
1752116314759539500,1.27153955078125,-0.22154000401496887,-0.7396519780158997,-0.5452650189399719
1752116314769393000,1.281392822265625,-0.8383399844169617,-0.7129719853401184,-1.384192943572998
1752116314779246600,1.29124658203125,0.29847800731658936,-1.0119730234146118,-2.123879909515381
1752116314789100000,1.30110009765625,-0.052962999790906906,-1.5428049564361572,-2.488154888153076
1752116314798954000,1.3109541015625,-2.3897531032562256,-1.4308669567108154,-0.8759880065917969
1752116314808807400,1.320807373046875,-2.1025230884552,-1.4451199769973755,-0.11639600247144699
1752116314818660900,1.330660888671875,-0.5921409726142883,-0.956354022026062,0.3622879981994629
1752116314828514600,1.3405146484375,0.46253299713134766,-0.752722978591919,1.3599200248718262
1752116314838368000,1.350367919921875,1.1516369581222534,-0.9698489904403687,2.221590995788574
1752116314848221700,1.3602216796875,1.1215499639511108,-0.9228039979934692,2.2313640117645264
1752116314858075400,1.370075439453125,1.3646010160446167,-1.1298140287399292,0.6663609743118286
1752116314867928800,1.3799287109375,1.026648998260498,-1.7343130111694336,-2.016321897506714
1752116314877782500,1.389782470703125,0.0545010007917881,-2.060544967651367,-2.8769009113311768
1752116314887636000,1.399635986328125,-0.5652300119400024,-2.4325830936431885,-2.2647199630737305
1752116314897489700,1.40948974609375,-0.6830620169639587,-2.6811389923095703,-3.112636089324951
1752116314907343000,1.419343017578125,-1.2104400396347046,-2.5910110473632812,-3.7474660873413086
1752116314917197000,1.429197021484375,-1.1890740394592285,-1.912235975265503,-4.020072937011719
1752116314927050500,1.439050537109375,-3.67192006111145,-0.564624011516571,-3.3253118991851807
1752116314936904200,1.448904296875,-7.4169769287109375,1.559959053993225,-0.3806990087032318
1752116314946758000,1.4587578125,-2.601043939590454,2.5872740745544434,0.6880620121955872
1752116314956611300,1.468611328125,2.089315891265869,2.5855369567871094,-0.08677700161933899
1752116314966465000,1.478465087890625,-1.2719019651412964,2.875154972076416,-0.4777660071849823
1752116314976318500,1.488318359375,-7.280177116394043,3.26269793510437,0.8369250297546387
1752116314986172200,1.498172119140625,-2.4243500232696533,4.098027229309082,-0.12596899271011353
1752116314996025600,1.508025634765625,0.7652130126953125,4.382894039154053,-1.257401943206787
1752116315005879600,1.517879638671875,0.05744599923491478,3.7494208812713623,-2.5073049068450928
1752116315015733000,1.52773291015625,-2.555866003036499,3.1479990482330322,-2.816333055496216
1752116315025586200,1.537586181640625,-1.666018009185791,3.1411020755767822,-2.886178970336914
1752116315035440000,1.547440185546875,-1.446033000946045,2.698244094848633,-2.04318904876709
1752116315045293600,1.55729345703125,-2.814862012863159,1.454043984413147,0.3608649969100952
1752116315055147300,1.567147216796875,0.4548569917678833,-0.30342599749565125,4.889434814453125
1752116315065001000,1.5770009765625,-0.3572880029678345,-1.4354690313339233,5.0980072021484375
1752116315074854700,1.586854736328125,-3.189012050628662,-1.8766059875488281,3.8379909992218018
1752116315084708000,1.5967080078125,-4.043474197387695,-2.8980140686035156,2.957211971282959
1752116315104415200,1.616415283203125,5.404149055480957,-7.034319877624512,2.000926971435547
1752116315114268700,1.6262685546875,4.075397968292236,-6.438698768615723,4.975564002990723
1752116315124122600,1.63612255859375,0.18632900714874268,-4.442310810089111,4.652544975280762
1752116315133976000,1.64597607421875,-1.0140759944915771,-2.640233039855957,2.404905080795288
1752116315143829800,1.655829833984375,-2.049088954925537,-1.626592993736267,1.5521140098571777
1752116315153683200,1.66568310546875,-2.3308188915252686,-1.2488219738006592,1.747715950012207
1752116315163536600,1.67553662109375,-0.09086699783802032,-0.8163160085678101,2.492806911468506
1752116315173390300,1.685390380859375,4.18273401260376,-0.19166700541973114,0.02649500034749508
1752116315183244000,1.695244140625,6.697968006134033,1.2954740524291992,-1.828171968460083
1752116315193097700,1.70509765625,5.687249183654785,2.533653974533081,-2.7849578857421875
1752116315202951200,1.714951171875,11.240669250488281,2.748173952102661,-3.539217948913574
1752116315212804600,1.7248046875,14.282841682434082,2.6150970458984375,-1.0665459632873535
1752116315222658300,1.734658203125,2.633244037628174,2.3791399002075195,2.0993149280548096
1752116315232512000,1.744511962890625,-1.8706649541854858,1.474478006362915,2.5220940113067627
1752116315252219100,1.76421923828125,1.0771889686584473,0.316895991563797,3.9139530658721924
1752116315262072800,1.77407275390625,2.2913661003112793,0.38796401023864746,6.038622856140137
1752116315271926500,1.783926513671875,2.2134270668029785,1.3464809656143188,3.2447071075439453
1752116315281780000,1.793780029296875,2.4072721004486084,2.15224289894104,1.490779995918274
1752116315291633700,1.803633544921875,1.842000961303711,2.3874950408935547,1.19405996799469
1752116315301487000,1.813487060546875,1.549996018409729,1.9434080123901367,1.1059789657592773
1752116315311340800,1.8233408203125,1.392896056175232,2.132452964782715,1.1132400035858154
1752116315321194500,1.833194580078125,0.3334740102291107,1.1934740543365479,1.7401620149612427
1752116315331048000,1.8430478515625,-1.4204529523849487,0.6064599752426147,2.594257116317749
1752116315340901600,1.852901611328125,-2.516611099243164,1.050271987915039,3.1944448947906494
1752116315350755000,1.862755126953125,-2.652292013168335,2.024878978729248,2.4505538940429688
1752116315360608800,1.87260888671875,-2.141998052597046,2.1860580444335938,1.5632989406585693
1752116315370462200,1.882462158203125,0.7354099750518799,2.170823097229004,0.885794997215271
1752116315380316200,1.892316162109375,2.1922121047973633,2.9539289474487305,0.6755759716033936
1752116315390169600,1.902169677734375,2.1899149417877197,3.4442379474639893,0.26956701278686523
1752116315400023300,1.912023193359375,2.2973148822784424,4.207377910614014,-0.2310599982738495
1752116315409877000,1.921876953125,2.212385892868042,2.8321239948272705,1.0471149682998657
1752116315419730400,1.93173046875,1.8851690292358398,1.1121799945831299,0.9776059985160828
1752116315429584100,1.941584228515625,1.6015679836273193,0.5216529965400696,0.7865189909934998
1752116315439437600,1.9514375,0.7895439863204956,1.099316954612732,1.4211699962615967
1752116315449291500,1.96129150390625,0.1382399946451187,3.7936251163482666,-1.7871910333633423
1752116315459145000,1.97114501953125,0.030352000147104263,1.6616100072860718,-5.31801700592041
1752116315468998700,1.98099853515625,4.136311054229736,1.4488630294799805,-2.6863889694213867
1752116315478852000,1.99085205078125,2.1673901081085205,1.8253079652786255,-0.17002299427986145
1752116315488705500,2.00070556640625,2.756840944290161,1.2896989583969116,-1.9407639503479004
1752116315498559200,2.010559326171875,3.4162979125976562,0.8704559803009033,-3.852897882461548
1752116315508413000,2.020412841796875,2.8392701148986816,1.9798170328140259,-4.530261993408203
1752116315518266600,2.0302666015625,1.8109840154647827,1.3977760076522827,-4.555785179138184
1752116315537973500,2.049973388671875,-0.9879779815673828,0.5801249742507935,-4.4036149978637695
1752116315547827500,2.059827392578125,-1.9399280548095703,-0.3140900135040283,-2.292565107345581
1752116315557681000,2.069680908203125,-3.211395025253296,-0.4906289875507355,-0.6443660259246826
1752116315567534600,2.07953466796875,-2.4939990043640137,-0.3693220019340515,1.680277943611145
1752116315577388300,2.08938818359375,-1.0065829753875732,-1.096284031867981,2.9031119346618652
1752116315587241700,2.09924169921875,1.7663929462432861,0.9260799884796143,2.864612102508545
1752116315597095400,2.109095458984375,3.1460208892822266,0.7080280184745789,1.0373749732971191
1752116315606948900,2.118948974609375,1.9373149871826172,0.1499750018119812,-0.7537779808044434
1752116315616802600,2.128802490234375,1.4585920572280884,0.2539539933204651,0.4045180082321167
1752116315626656300,2.13865625,-0.1445319950580597,-1.2334860563278198,0.7372090220451355
1752116315636510000,2.148510009765625,-0.6665530204772949,-0.8286409974098206,1.0132850408554077
1752116315646363400,2.15836328125,-0.9648799896240234,-1.1936919689178467,0.48548200726509094
1752116315656217000,2.168217041015625,-1.6758830547332764,-1.3939590454101562,-1.7089320421218872
1752116315666070500,2.178070556640625,-1.030208945274353,-2.605017900466919,-2.3594789505004883
1752116315675924200,2.18792431640625,-1.408864974975586,-1.4847979545593262,-1.1809940338134766
1752116315685778000,2.19777783203125,-0.9349790215492249,-1.5463759899139404,-0.19284099340438843
1752116315695631400,2.20763134765625,1.0717309713363647,-1.0714709758758545,1.9514340162277222
1752116315705485300,2.2174853515625,2.5749080181121826,-0.1164809986948967,4.1621270179748535
1752116315715338800,2.2273388671875,1.734442949295044,0.9938269853591919,9.064376831054688
1752116315735046000,2.2470458984375,-3.2240350246429443,4.943920135498047,-3.1711370944976807
1752116315744899300,2.2568994140625,3.7128748893737793,3.3724730014801025,-2.494694948196411
1752116315754753300,2.266753173828125,-0.32895201444625854,-0.9712939858436584,2.6254329681396484
1752116315764607000,2.27660693359375,-1.9687349796295166,0.06311400234699249,1.2467750310897827
1752116315774460700,2.286460693359375,-2.772573947906494,-0.0852390006184578,-4.843489170074463
1752116315784314000,2.296314208984375,0.2992500066757202,0.767615020275116,-11.832480430603027
1752116315794167800,2.306167724609375,2.680546998977661,1.8300679922103882,-15.17527961730957
1752116315804021200,2.316021240234375,4.523433208465576,0.8584219813346863,-11.541464805603027
1752116315813875000,2.325875,4.041057109832764,-0.01895800046622753,-5.094042778015137
1752116315823728600,2.335728759765625,0.7256630063056946,-0.2761029899120331,-4.900660037994385
1752116315833582000,2.34558203125,0.18002000451087952,0.10389100015163422,-4.775101184844971
1752116315843435800,2.355435791015625,-0.7832279801368713,-0.13693000376224518,-3.3295459747314453
1752116315853289500,2.36528955078125,-0.44061699509620667,-1.0641740560531616,1.642943024635315
1752116315863143000,2.375142822265625,0.24766699969768524,-1.753453016281128,5.161691188812256
1752116315872996600,2.38499658203125,-0.5582029819488525,-1.0055969953536987,6.166366100311279
1752116315882850300,2.394850341796875,0.35149499773979187,-0.12169700115919113,3.894329071044922
1752116315892703700,2.404703857421875,1.0533339977264404,-0.04725399985909462,2.1640241146087646
1752116315902557400,2.414557373046875,-0.28717899322509766,-0.1086369976401329,0.9148769974708557
1752116315912411100,2.4244111328125,-0.3441070020198822,-0.5314729809761047,1.0278149843215942
1752116315922264600,2.4342646484375,-2.188502073287964,0.8340700268745422,-0.8209959864616394
1752116315932118300,2.4441181640625,-0.3597809970378876,0.22494900226593018,-1.7732529640197754
1752116315941972000,2.453971923828125,-2.7439370155334473,1.1304219961166382,1.778272032737732
1752116315951825400,2.463825439453125,0.4161140024662018,0.2093230038881302,2.1088271141052246
1752116315961679400,2.473679443359375,0.3539699912071228,1.008213996887207,0.34584400057792664
1752116315971532800,2.48353271484375,-0.2331240028142929,1.5685290098190308,-0.2084520012140274
1752116315981386500,2.493386474609375,-0.9677720069885254,1.7169469594955444,0.05670800060033798
1752116315991240000,2.503239990234375,-2.4890389442443848,0.7207589745521545,0.5428239703178406
1752116316001093600,2.51309375,-3.563936948776245,-0.06864000111818314,0.25144800543785095
1752116316010947000,2.522947021484375,-2.1222620010375977,-0.2034579962491989,-0.26091599464416504
1752116316020801000,2.532801025390625,-0.7446820139884949,-0.8843939900398254,-0.08730699867010117
1752116316030654500,2.542654541015625,1.2811470031738281,-0.8756080269813538,0.40309301018714905
1752116316040508200,2.552508056640625,2.1061949729919434,-0.3518480062484741,1.1944530010223389
1752116316050361600,2.562361572265625,3.1267828941345215,-1.1532540321350098,2.164381980895996
1752116316060215300,2.57221533203125,1.7558399438858032,-0.790395975112915,1.9059679508209229
1752116316070069000,2.582069091796875,0.3077169954776764,-0.31900501251220703,1.3517630100250244
1752116316079922400,2.59192236328125,-1.9786059856414795,-1.2643909454345703,0.484701007604599
1752116316089776400,2.6017763671875,-0.8587369918823242,-0.7832170128822327,0.4519590139389038
1752116316099629800,2.6116298828125,-0.1534709930419922,0.13731500506401062,1.0194439888000488
1752116316109483500,2.6214833984375,0.9944970011711121,0.13652800023555756,0.3316259980201721
1752116316119337200,2.631337158203125,-0.6600430011749268,-0.440854012966156,1.3564469814300537
1752116316129191000,2.64119091796875,-1.0250589847564697,-0.08325900137424469,1.7904620170593262
1752116316139044400,2.65104443359375,-0.4624519944190979,-0.1185619980096817,1.5691709518432617
1752116316148898000,2.66089794921875,0.146465003490448,0.09511300176382065,0.37899699807167053
1752116316158751700,2.670751708984375,0.405115008354187,0.24056200683116913,0.24420499801635742
1752116316168605200,2.680605224609375,1.160946011543274,0.32959499955177307,-0.10996899753808975
1752116316178459000,2.690458984375,0.5364760160446167,-0.48315998911857605,-1.0023800134658813
1752116316188312600,2.7003125,0.1523980051279068,-1.3009699583053589,-0.9713940024375916
1752116316198166300,2.710166259765625,-1.273813009262085,-0.8527160286903381,-0.7241089940071106
1752116316208019700,2.720019775390625,0.017180999740958214,-0.9496709704399109,-0.7444900274276733
1752116316217873400,2.729873291015625,0.27715399861335754,-0.8725209832191467,-1.6457439661026
1752116316227727000,2.73972705078125,0.12560200691223145,-1.1590980291366577,-1.485651969909668
1752116316237580800,2.749580810546875,-0.20426300168037415,-0.033330000936985016,-1.1393589973449707
1752116316247434200,2.759434326171875,0.2554050087928772,-0.4629960060119629,-0.233801007270813
1752116316257288000,2.769287841796875,-0.3140229880809784,-0.5610319972038269,-0.3134399950504303
1752116316267141600,2.7791416015625,-0.462103009223938,-0.44965100288391113,-0.5294579863548279
1752116316276995300,2.788995361328125,-0.0765720009803772,-0.27114900946617126,-1.0505419969558716
1752116316286849000,2.79884912109375,-0.47972598671913147,-0.13417300581932068,-1.2515710592269897
1752116316296702500,2.808702392578125,-0.6635429859161377,-0.06275299936532974,-1.4039310216903687
1752116316306556200,2.81855615234375,-0.08220700174570084,0.3780669867992401,-1.8002359867095947
1752116316316409600,2.82840966796875,-0.4683780074119568,0.3334740102291107,-2.377748966217041
1752116316326263600,2.838263671875,-0.6824439764022827,0.12893100082874298,-2.5938010215759277
1752116316336117000,2.848116943359375,-0.8095149993896484,0.8849480152130127,-3.714884042739868
1752116316345970700,2.857970703125,-0.2742590010166168,1.9438960552215576,-6.244542121887207
1752116316355824000,2.86782421875,1.1710519790649414,2.0596261024475098,-7.813307762145996
1752116316365677800,2.877677734375,3.104773998260498,1.844596028327942,-5.879983901977539
1752116316375531800,2.88753173828125,-0.7361429929733276,-0.12882700562477112,-2.8301279544830322
1752116316385385200,2.89738525390625,0.7467120289802551,-0.2753390073776245,-7.622405052185059
1752116316395239000,2.907239013671875,-5.422624111175537,-0.7398200035095215,-3.1712570190429688
1752116316405092400,2.91709228515625,-5.8773579597473145,-3.158931016921997,8.127228736877441
1752116316414945800,2.92694580078125,-4.252338886260986,-2.6853110790252686,6.690101146697998
1752116316424799700,2.9367998046875,1.8223320245742798,1.2524700164794922,-0.061448998749256134
1752116316434653200,2.946653076171875,3.7519309520721436,2.0540659427642822,2.317293882369995
1752116316444507000,2.9565068359375,4.753798961639404,5.339151859283447,1.0769339799880981
1752116316454360600,2.966360595703125,0.11507699638605118,-0.04478999972343445,5.684977054595947
1752116316464214300,2.97621435546875,-6.417661190032959,-1.7376790046691895,10.011297225952148
1752116316474067700,2.986067626953125,-0.4370810091495514,-0.7964649796485901,10.82676887512207
1752116316483921700,2.995921630859375,0.7888240218162537,2.250683069229126,4.462245941162109
1752116316493775000,3.005775146484375,2.5962259769439697,1.865144968032837,1.1399420499801636
1752116316503628800,3.01562890625,-0.24434800446033478,0.20272399485111237,4.213119029998779
1752116316513482500,3.025482421875,-2.2232449054718018,-0.19109700620174408,4.138847827911377
1752116316523336000,3.0353359375,-1.2894129753112793,1.1143369674682617,3.718287944793701
1752116316533189600,3.045189697265625,-0.7428269982337952,0.6992009878158569,4.330678939819336
1752116316543043300,3.055043212890625,-0.907721996307373,-0.13408400118350983,4.384035110473633
1752116316552897000,3.06489697265625,0.6687989830970764,-0.7731630206108093,3.9916810989379883
1752116316562750500,3.07475048828125,1.7470289468765259,-0.7359219789505005,1.6179980039596558
1752116316572604400,3.0846044921875,1.633628010749817,-1.070351004600525,1.198861002922058
1752116316582457900,3.094457763671875,1.0849579572677612,-1.0966490507125854,1.6153600215911865
1752116316592311600,3.1043115234375,1.4379470348358154,-1.5759680271148682,1.7510260343551636
1752116316602165000,3.1141650390625,0.7091550230979919,-2.3172221183776855,3.4888288974761963
1752116316612018700,3.124018798828125,0.11745300143957138,-1.554597020149231,8.687032699584961
1752116316621872400,3.133872314453125,-1.3918139934539795,-0.4151510000228882,6.326176166534424
1752116316631726000,3.14372607421875,-2.2367959022521973,-2.7313570976257324,2.131289005279541
1752116316641579800,3.153579833984375,-2.2157270908355713,-1.977383017539978,-2.6590769290924072
1752116316651433700,3.163433837890625,-1.3904589414596558,-1.06693696975708,-5.029796123504639
1752116316661287200,3.173287109375,0.11615599691867828,-1.759335994720459,0.813306987285614
1752116316671140900,3.183140869140625,-16.832550048828125,-4.021481037139893,21.117626190185547
1752116316680994300,3.192994384765625,-2.900763988494873,4.377603054046631,-19.072444915771484
1752116316690848000,3.202847900390625,3.670344114303589,3.9348390102386475,-18.755878448486328
1752116316700701700,3.21270166015625,-0.24681000411510468,0.02031099982559681,-18.62002944946289
1752116316710555100,3.22255517578125,-0.9094979763031006,-0.9390010237693787,-9.80492115020752
1752116316720408800,3.232408935546875,1.6514209508895874,1.2662889957427979,-5.608460903167725
1752116316730262500,3.242262451171875,4.630949974060059,1.6580649614334106,-3.8047709465026855
1752116316740116200,3.2521162109375,4.4148101806640625,-0.49326300621032715,-1.0097899436950684
1752116316749969700,3.2619697265625,4.206160068511963,-0.15758900344371796,0.2099599987268448
1752116316759823400,3.2718232421875,2.236398935317993,0.11654800176620483,1.8383530378341675
1752116316769677000,3.281677001953125,1.15597403049469,-1.130053997039795,0.9958299994468689
1752116316779530800,3.29153076171875,-0.9071869850158691,-4.451465129852295,0.6729230284690857
1752116316789384400,3.301384521484375,-1.189337968826294,-1.8814079761505127,-0.33219200372695923
1752116316799238000,3.31123779296875,-1.1525449752807617,0.8752319812774658,0.7336069941520691
1752116316809091800,3.321091796875,0.7341600060462952,2.123404026031494,-2.26760196685791
1752116316818945300,3.3309453125,4.092576026916504,-5.292693138122559,2.855191946029663
1752116316828799000,3.340799072265625,2.5054070949554443,-8.203863143920898,8.707651138305664
1752116316838652700,3.350652587890625,0.3905389904975891,-5.021783828735352,9.845315933227539
1752116316848506000,3.360506103515625,1.1865949630737305,-1.7224730253219604,5.908596992492676
1752116316858359800,3.37035986328125,-0.09552700072526932,-1.6338069438934326,4.605568885803223
1752116316868213200,3.380213134765625,-4.792524814605713,-2.652574062347412,2.6112589836120605
1752116316878067200,3.390067138671875,-5.180620193481445,-2.9678220748901367,1.522001028060913
1752116316887921000,3.3999208984375,-3.783482074737549,-0.9577569961547852,-0.5934180021286011
1752116316897774300,3.4097744140625,-2.7911899089813232,-0.08508899807929993,1.4026949405670166
1752116316907628000,3.4196279296875,-3.200201988220215,-0.45545700192451477,1.297023057937622
1752116316917481700,3.429481689453125,-5.655600070953369,1.0801819562911987,2.847141981124878
1752116316927335400,3.43933544921875,-6.803613185882568,1.7753779888153076,0.13234099745750427
1752116316937188900,3.44918896484375,-4.9811930656433105,3.5094408988952637,-1.3879599571228027
1752116316947042800,3.459042724609375,-4.83294677734375,4.345282077789307,-0.9646450281143188
1752116316956896300,3.468896240234375,-4.681881904602051,4.958742141723633,0.9905850291252136
1752116316966750000,3.47875,1.1603009700775146,4.144723892211914,1.0414860248565674
1752116316976603400,3.488603271484375,11.18278694152832,2.146984100341797,-2.2797060012817383
1752116316986457300,3.498457275390625,13.461641311645508,0.058511000126600266,-2.9536900520324707
1752116316996310800,3.508310791015625,6.279277801513672,0.5673940181732178,-0.6748179793357849
1752116317006164700,3.518164794921875,1.139572024345398,0.47433900833129883,-0.5652850270271301
1752116317016018200,3.52801806640625,-2.7301790714263916,0.247979998588562,-0.45855599641799927
1752116317025872000,3.537871826171875,-3.217417001724243,0.7990859746932983,-0.5574820041656494
1752116317035725600,3.5477255859375,0.2729310095310211,-0.48254600167274475,0.9560949802398682
1752116317045579000,3.5575791015625,1.0421110391616821,-2.8020989894866943,-0.43239301443099976
1752116317055432700,3.5674326171875,-0.9782879948616028,-2.3839728832244873,-0.460191011428833
1752116317065286400,3.577286376953125,-1.6099029779434204,0.5580729842185974,-0.3859820067882538
1752116317075140000,3.58714013671875,-0.13012699782848358,0.7294560074806213,-0.7534840106964111
1752116317084993500,3.59699365234375,0.1249610036611557,-0.24994400143623352,-1.001731038093567
1752116317094847500,3.606847412109375,-1.0268720388412476,-0.22537299990653992,-0.8683909773826599
1752116317104701000,3.616700927734375,0.4182029962539673,0.653406023979187,0.039831001311540604
1752116317114554600,3.6265546875,0.9154930114746094,1.1253399848937988,-0.15595899522304535
1752116317124408300,3.636408203125,-0.3844529986381531,1.4428420066833496,-0.6357300281524658
1752116317134262000,3.646261962890625,6.971010208129883,-0.5664610266685486,1.4276319742202759
1752116317144115500,3.656115478515625,-3.386996030807495,0.4789470136165619,0.3731229901313782
1752116317153969200,3.66596923828125,-3.4694440364837646,1.561661958694458,0.5703949928283691
1752116317163822800,3.67582275390625,-0.03213199973106384,0.9615190029144287,0.866661012172699
1752116317173676300,3.68567626953125,-0.18693600594997406,0.2151769995689392,2.172451972961426
1752116317183530200,3.6955302734375,0.14042000472545624,-0.07619299739599228,1.3342779874801636
1752116317193383700,3.7053837890625,0.9700220227241516,0.07712399959564209,-0.3893829882144928
1752116317203237600,3.715237548828125,0.921563982963562,-0.3601059913635254,-0.3988589942455292
1752116317213091000,3.725091064453125,0.11692400276660919,-0.956013023853302,-0.36964699625968933
1752116317222944800,3.73494482421875,-1.0382599830627441,-1.0517499446868896,-0.5494250059127808
1752116317232798500,3.744798583984375,-0.7122060060501099,0.5166559815406799,-1.1828739643096924
1752116317242652200,3.754652099609375,0.5865100026130676,1.5675959587097168,-0.9555879831314087
1752116317252505600,3.764505615234375,0.3160589933395386,1.8000270128250122,-1.5428260564804077
1752116317262359600,3.774359619140625,-0.7995010018348694,1.646183967590332,-2.335036039352417
1752116317272213000,3.784212890625,-0.42958301305770874,0.03215499967336655,-1.1850980520248413
1752116317282067000,3.79406689453125,0.6771489977836609,0.059634000062942505,1.9593700170516968
1752116317291920400,3.80392041015625,0.6903390288352966,1.1657090187072754,2.7241508960723877
1752116317301773800,3.81377392578125,0.6360509991645813,1.4030300378799438,4.044651985168457
1752116317311627800,3.823627685546875,-1.095842957496643,0.9284070134162903,3.3106091022491455
1752116317321481200,3.833481201171875,-2.28049898147583,1.1587599515914917,1.4458099603652954
1752116317331335000,3.8433349609375,1.5092819929122925,0.21228699386119843,-0.4498629868030548
1752116317341188600,3.853188720703125,-1.5855799913406372,-0.616051971912384,0.5191670060157776
1752116317351042300,3.863042236328125,-0.7028459906578064,0.8930789828300476,0.029534999281167984
1752116317360896000,3.87289599609375,0.26819801330566406,1.6621719598770142,0.6750019788742065
1752116317370749700,3.882749755859375,-0.5864570140838623,3.7227261066436768,1.1843479871749878
1752116317380603100,3.89260302734375,-0.6031150221824646,4.2234787940979,1.2364779710769653
1752116317390456800,3.902456787109375,-0.6526029706001282,4.581724166870117,0.5634520053863525
1752116317400310500,3.912310546875,-0.4100419878959656,5.382307052612305,0.011006999760866165
1752116317410164200,3.922164306640625,0.4669159948825836,7.082756996154785,0.7567449808120728
1752116317420018000,3.932017822265625,0.8532810211181641,6.970436096191406,1.409751057624817
1752116317429871600,3.94187158203125,-0.7087460160255432,5.711338043212891,0.5989750027656555
1752116317439725000,3.95172509765625,-2.53737211227417,2.528254985809326,1.798156976699829
1752116317449578800,3.961578857421875,-3.471924066543579,-1.647236943244934,1.1707309484481812
1752116317459432400,3.971432373046875,-1.4296319484710693,-1.895861029624939,0.2660349905490875
1752116317469286000,3.981285888671875,0.1188419982790947,-4.5577239990234375,-1.3044370412826538
1752116317479139800,3.991139892578125,1.3408080339431763,-4.798891067504883,-1.7568199634552002
1752116317488993500,4.00099365234375,1.2207210063934326,-4.8204731941223145,-1.5506479740142822
1752116317498847000,4.010846923828125,0.6070669889450073,-4.913639068603516,-0.7395840287208557
1752116317508700700,4.02070068359375,1.5374430418014526,-2.9132471084594727,-0.37413498759269714
1752116317518554000,4.03055419921875,0.7309110164642334,-0.6321370005607605,-1.296995997428894
1752116317528408000,4.040407958984375,-0.5633230209350586,-0.9866549968719482,-0.9378299713134766
1752116317538261500,4.050261474609375,-1.3744820356369019,-0.5184339880943298,-0.150178000330925
1752116317548115200,4.060115234375,0.7682430148124695,-1.141266942024231,0.7899119853973389
1752116317557969000,4.069968994140625,1.9037150144577026,2.630462884902954,-1.0996869802474976
1752116317567822600,4.079822509765625,-0.3543950021266937,1.3730789422988892,-0.4646269977092743
1752116317577676300,4.08967626953125,0.5236489772796631,-0.6606389880180359,0.6093869805335999
1752116317587529700,4.09952978515625,0.7065979838371277,-4.312266826629639,-0.02119399979710579
1752116317597383400,4.109383544921875,-0.8076519966125488,-3.7120749950408936,-0.409494012594223
1752116317607237000,4.119237060546875,-3.3992691040039062,2.223844051361084,0.07476799935102463
1752116317617091000,4.129091064453125,-1.6018179655075073,2.194888114929199,0.2795099914073944
1752116317626944500,4.138944580078125,-0.5089809894561768,0.9869530200958252,0.6905339956283569
1752116317636798200,4.148798095703125,1.1815760135650635,-1.7623440027236938,-0.21270200610160828
1752116317646652000,4.15865185546875,1.330494999885559,-2.1880180835723877,-0.7024310231208801
1752116317656505600,4.168505615234375,-0.7287669777870178,-1.0153520107269287,0.05891000106930733
1752116317666359000,4.178359130859375,-0.35777899622917175,0.5676500201225281,0.4362809956073761
1752116317676213000,4.188212890625,-0.19836899638175964,0.43368300795555115,0.30636799335479736
1752116317686066400,4.19806640625,-0.18870100378990173,0.6810430288314819,0.7888619899749756
1752116317695920000,4.207920166015625,0.8426849842071533,-2.0882019996643066,0.4325059950351715
1752116317705773600,4.217773681640625,0.7766249775886536,-1.2622259855270386,0.12459199875593185
1752116317715627500,4.22762744140625,0.6195570230484009,1.323943018913269,-0.2363789975643158
1752116317725481000,4.23748095703125,0.05105999857187271,1.8662559986114502,-0.7615119814872742
1752116317735334700,4.247334716796875,-0.4626699984073639,3.217648983001709,-0.4884060025215149
1752116317745188400,4.257188232421875,-0.7245650291442871,2.94412899017334,-0.4572960138320923
1752116317755042000,4.2670419921875,-1.1077079772949219,2.823662042617798,-0.4280489981174469
1752116317764895700,4.276895751953125,-3.1717751026153564,1.518218994140625,0.2065339982509613
1752116317774749200,4.286749267578125,-1.934332013130188,-2.4800100326538086,-0.04450700059533119
1752116317784603100,4.29660302734375,-0.49807998538017273,-0.46645399928092957,1.0023399591445923
1752116317794456600,4.30645654296875,0.6510670185089111,1.0226329565048218,1.0256450176239014
1752116317804310300,4.316310302734375,-0.22217699885368347,1.7049009799957275,-0.4422279894351959
1752116317814164000,4.3261640625,-1.2224849462509155,0.685666024684906,-0.27698200941085815
1752116317824017700,4.336017578125,-1.5920729637145996,0.4801509976387024,0.39389100670814514
1752116317833871400,4.345871337890625,-0.48956298828125,-0.8502169847488403,-0.18257099390029907
1752116317843725000,4.35572509765625,1.2726240158081055,-0.854640007019043,-0.1597830057144165
1752116317853578800,4.365578857421875,2.047981023788452,-0.6676719784736633,0.1298229992389679
1752116317863432200,4.37543212890625,-1.0037779808044434,0.28188300132751465,1.2685049772262573
1752116317873286000,4.385285888671875,-0.18987399339675903,-0.23316000401973724,-0.04406600072979927
1752116317883139600,4.3951396484375,-0.9310839772224426,-0.31493398547172546,-0.8942599892616272
1752116317892993300,4.4049931640625,0.37383100390434265,-0.9495819807052612,-0.6562910079956055
1752116317902847000,4.414846923828125,0.5978310108184814,-1.3897579908370972,-0.6536459922790527
1752116317912700700,4.42470068359375,-0.7922059893608093,-0.39298298954963684,-0.16513699293136597
1752116317922554400,4.434554443359375,-1.1163280010223389,0.31652599573135376,-0.04469799995422363
1752116317932408000,4.444407958984375,0.9212579727172852,0.49406200647354126,0.6624709963798523
1752116317942261500,4.454261474609375,0.12843400239944458,1.8252530097961426,0.17912699282169342
1752116317952115200,4.464115234375,0.823809027671814,-0.11052100360393524,-0.6462860107421875
1752116317961969000,4.473968994140625,0.25908800959587097,-1.623553991317749,-0.6804620027542114
1752116317971822800,4.48382275390625,0.8717420101165771,-1.7283070087432861,0.5668879747390747
1752116317981676300,4.49367626953125,0.06512899696826935,-1.4470900297164917,0.7422959804534912
1752116317991530000,4.503530029296875,-0.7400990128517151,-0.5367130041122437,0.8037409782409668
1752116318001383400,4.513383544921875,-0.5473489761352539,0.8831819891929626,0.3596999943256378
1752116318011237400,4.5232373046875,-1.0143680572509766,0.8146870136260986,-0.29836899042129517
1752116318021090800,4.5330908203125,-0.17917299270629883,-0.12467200309038162,-0.7711439728736877
1752116318030944800,4.54294482421875,0.2920660078525543,-0.5957249999046326,0.25653499364852905
1752116318040798200,4.552798095703125,0.25684499740600586,0.09266600012779236,0.583109974861145
1752116318050652000,4.56265185546875,-0.3040800094604492,1.9493839740753174,0.6974089741706848
1752116318060505600,4.572505615234375,-0.5025709867477417,2.032921075820923,-0.2589940130710602
1752116318070359300,4.582359375,-0.8265730142593384,1.3277729749679565,0.3418149948120117
1752116318080213000,4.592212890625,-1.3459609746932983,0.8744099736213684,0.3303689956665039
1752116318090066700,4.602066650390625,0.8111760020256042,-0.6168670058250427,0.4954720139503479
1752116318099920100,4.611920166015625,-0.9334700107574463,1.173145055770874,1.6061240434646606
1752116318109773800,4.62177392578125,-0.995061993598938,2.1707100868225098,-0.38100799918174744
1752116318119627500,4.63162744140625,-0.14497800171375275,4.379727840423584,1.2564849853515625
1752116318129481200,4.641481201171875,-4.545567989349365,8.075285911560059,0.2298939973115921
1752116318139335000,4.6513349609375,1.1852480173110962,0.7375969886779785,-1.6690200567245483
1752116318149188600,4.661188720703125,-0.0362199991941452,0.19554300606250763,1.4966219663619995
1752116318159042300,4.671042236328125,0.06768599897623062,-1.540094017982483,0.2391110062599182
1752116318168895700,4.680895751953125,-1.8541879653930664,1.4936540126800537,0.8663610219955444
1752116318178749700,4.690749755859375,3.0893099308013916,-2.7654008865356445,1.4800089597702026
1752116318188603100,4.70060302734375,-1.3832889795303345,0.7183070182800293,1.4687299728393555
1752116318198456800,4.710456787109375,-2.3645150661468506,1.478361964225769,-0.42884498834609985
1752116318208310500,4.720310546875,-0.23758399486541748,-0.8112249970436096,-1.7440860271453857
1752116318218164200,4.730164306640625,-2.904680013656616,0.6781449913978577,0.35353800654411316
1752116318228018000,4.740017822265625,1.1850290298461914,0.44224798679351807,-1.3639320135116577
1752116318237871600,4.74987158203125,-3.6862590312957764,-0.11924099922180176,0.1572750061750412
1752116318247725300,4.759725341796875,1.7648040056228638,2.327544927597046,-0.6282910108566284
1752116318257579000,4.7695791015625,1.7549060583114624,1.0280519723892212,-0.951213002204895
1752116318267432700,4.7794326171875,-0.9640020132064819,1.428468942642212,-0.4042220115661621
1752116318277286100,4.7892861328125,0.6179959774017334,-0.36823299527168274,-2.0603370666503906
1752116318287140000,4.79914013671875,0.3858489990234375,-0.614799976348877,-0.27671098709106445
1752116318296993800,4.808993896484375,1.7863579988479614,-0.027793999761343002,-1.8334269523620605
1752116318306847200,4.81884716796875,1.8342859745025635,-1.7072869539260864,-3.9945480823516846
1752116318316701000,4.828700927734375,-0.5069199800491333,-1.627951979637146,-1.8688219785690308
1752116318326554600,4.8385546875,-0.7691640257835388,-1.8195029497146606,0.9889310002326965
1752116318336408300,4.848408203125,0.2611890137195587,-1.6111760139465332,0.15855400264263153
1752116318346262000,4.858261962890625,0.7351980209350586,-0.4895539879798889,0.34405601024627686
1752116318356115700,4.86811572265625,0.6524810194969177,-1.138098955154419,-0.563884973526001
1752116318365969200,4.87796923828125,0.47138598561286926,-2.8585660457611084,0.5902510285377502
1752116318375823000,4.887822998046875,0.0575530007481575,-2.602092981338501,0.8557419776916504
1752116318385676500,4.897676513671875,0.42348599433898926,-2.967031955718994,0.006000999826937914
1752116318395530200,4.9075302734375,0.5043179988861084,-2.1619300842285156,-0.7808759808540344
1752116318405384000,4.917384033203125,0.2954399883747101,-2.0394439697265625,-0.7319830060005188
1752116318415237600,4.927237548828125,0.3712089955806732,-1.3408939838409424,-0.2045229971408844
1752116318425091300,4.93709130859375,0.6386650204658508,-0.1658630073070526,-0.2916499972343445
1752116318434945000,4.946945068359375,-0.38154199719429016,0.04933999851346016,-0.5830680131912231
1752116318444798500,4.956798583984375,-0.12107100337743759,-0.9396719932556152,-0.020565999671816826
1752116318454652400,4.96665234375,0.07332900166511536,-1.1360880136489868,0.3262439966201782
1752116318464506000,4.976506103515625,0.10074300318956375,-2.6481330394744873,-0.445264995098114
1752116318474359800,4.98635986328125,0.3926500082015991,-1.9028170108795166,0.19715699553489685
1752116318484213200,4.996213134765625,0.44025498628616333,-1.0803329944610596,-0.6005579829216003
1752116318494067200,5.006067138671875,-0.22791700065135956,-1.6226069927215576,-0.3532220125198364
1752116318503920600,5.015920654296875,0.1837500035762787,-1.7460570335388184,0.025693999603390694
1752116318513774600,5.025774658203125,-0.13446000218391418,-1.8980640172958374,0.206153005361557
1752116318523628000,5.0356279296875,0.04420800134539604,-0.7567840218544006,0.2348880022764206
1752116318533481700,5.045481689453125,0.02389400079846382,-0.3762040138244629,0.21513299643993378
1752116318543335400,5.05533544921875,0.33684998750686646,-0.1865829974412918,0.33183199167251587
1752116318553189400,5.065189453125,1.007478952407837,-0.23599499464035034,0.5017110109329224
1752116318563042800,5.075042724609375,0.4704050123691559,-1.033871054649353,0.8181009888648987
1752116318572896500,5.084896484375,0.6117600202560425,-1.715345025062561,1.1283830404281616
1752116318582750200,5.094750244140625,0.04406199976801872,-1.9715989828109741,1.1439900398254395
1752116318592604000,5.10460400390625,-0.3102720081806183,-1.4170149564743042,1.1576600074768066
1752116318602457600,5.11445751953125,-0.6061859726905823,1.5699390172958374,0.8828499913215637
1752116318612311300,5.124311279296875,-1.7620949745178223,2.8660778999328613,-0.4459249973297119
1752116318622165000,5.1341650390625,-1.3237930536270142,2.5953938961029053,-1.673814058303833
1752116318632018700,5.144018798828125,-0.9048119783401489,1.696347951889038,-1.35828697681427
1752116318641872400,5.153872314453125,-0.5515419840812683,1.0303469896316528,-0.691959023475647
1752116318651726000,5.16372607421875,-0.14842699468135834,0.4272170066833496,0.2627420127391815
1752116318661579800,5.173579833984375,0.5669950246810913,-0.14565999805927277,1.0278029441833496
1752116318671433500,5.18343359375,-0.11973399668931961,-0.022306999191641808,1.0532280206680298
1752116318681287200,5.193287109375,0.6321250200271606,-0.8128079771995544,0.8288689851760864
1752116318691140900,5.203140869140625,-0.24937699735164642,-0.6357359886169434,0.6468290090560913
1752116318700994600,5.21299462890625,0.045430999249219894,-0.8085929751396179,-0.03660999983549118
1752116318710848300,5.22284814453125,0.999547004699707,-0.6303539872169495,0.3381179869174957
1752116318720702000,5.232701904296875,-0.25573301315307617,-0.26941901445388794,0.36434701085090637
1752116318730555600,5.2425556640625,0.04405200108885765,-0.028699999675154686,0.16724799573421478
1752116318740409000,5.2524091796875,-0.08011399954557419,0.2217009961605072,-0.03062799945473671
1752116318750262800,5.2622626953125,-0.34317299723625183,0.5757219791412354,-0.3195909857749939
1752116318760116700,5.27211669921875,-0.050540000200271606,0.7131929993629456,-0.11353199928998947
1752116318769970200,5.28197021484375,-0.040456999093294144,1.1026020050048828,-0.09714800119400024
1752116318779823900,5.291823974609375,-0.3634189963340759,1.6992900371551514,-0.08372800052165985
1752116318789677600,5.301677490234375,-0.10896600037813187,2.0889410972595215,-0.40590301156044006
1752116318799531300,5.31153125,-0.31300100684165955,3.401379108428955,-0.785099983215332
1752116318809385000,5.321385009765625,0.20918600261211395,1.9501609802246094,-0.2473990023136139
1752116318819238700,5.33123876953125,-0.5688400268554688,1.0904840230941772,-0.27292999625205994
1752116318829092400,5.34109228515625,-0.2672809958457947,-0.07299699634313583,-0.41700801253318787
1752116318838946000,5.350946044921875,0.05926299840211868,-0.9682350158691406,-0.1511559933423996
1752116318848799700,5.3607998046875,0.20214200019836426,-1.4639650583267212,0.7282819747924805
1752116318858653400,5.3706533203125,0.039191000163555145,-1.5431619882583618,1.0089600086212158
1752116318868507100,5.380507080078125,0.32032498717308044,-1.0858819484710693,0.1284479945898056
1752116318878360800,5.39036083984375,0.07166600227355957,-0.8947780132293701,0.007288000080734491
1752116318888214500,5.400214599609375,0.06440400332212448,-0.7978320121765137,0.19608399271965027
1752116318898068200,5.410068115234375,0.1417189985513687,-1.3459739685058594,0.11612600088119507
1752116318907922000,5.419921875,-0.12159600108861923,-1.8322219848632812,-0.1591069996356964
1752116318917775600,5.429775634765625,-0.03252600133419037,-1.5542019605636597,0.08063100278377533
1752116318927629300,5.43962939453125,0.5835999846458435,-1.0574549436569214,0.42050299048423767
1752116318937483000,5.44948291015625,0.2754639983177185,-0.21328400075435638,1.0326069593429565
1752116318947336700,5.459336669921875,0.20720599591732025,0.9673730134963989,0.8639209866523743
1752116318957190100,5.469190185546875,-0.12860199809074402,0.629235029220581,-0.22091899812221527
1752116318967044000,5.479044189453125,-0.8904229998588562,0.28846898674964905,-0.6879079937934875
1752116318976897800,5.488897705078125,-0.464011013507843,-0.24672499299049377,-0.4413929879665375
1752116318986751500,5.49875146484375,-0.9999600052833557,-0.3320600092411041,0.03755800053477287
1752116318996605200,5.508605224609375,-0.6145619750022888,-0.21588100492954254,0.08637499809265137
1752116319006459000,5.518458984375,-0.793582022190094,0.6450319886207581,-0.008138000033795834
1752116319016312300,5.528312255859375,-0.49985799193382263,1.1841670274734497,-0.1540829986333847
1752116319026166300,5.538166259765625,0.18626399338245392,1.9296059608459473,-0.3170210123062134
1752116319036019700,5.548019775390625,0.0415319986641407,1.8074450492858887,-0.280474990606308
1752116319045873400,5.557873291015625,0.22867700457572937,1.456866979598999,-0.4065279960632324
1752116319055727000,5.56772705078125,0.1519089937210083,1.7218170166015625,-0.15234999358654022
1752116319065580800,5.577580810546875,0.021747000515460968,2.5411570072174072,0.08651000261306763
1752116319075434500,5.5874345703125,-0.04905100166797638,3.674243927001953,-0.03355199843645096
1752116319085288200,5.5972880859375,-0.00879599992185831,3.0492780208587646,0.025572000071406364
1752116319095142000,5.607141845703125,0.12166500091552734,4.297665119171143,0.6078410148620605
1752116319104995600,5.61699560546875,0.42480000853538513,2.7014870643615723,0.9522539973258972
1752116319114849300,5.626849365234375,0.1965090036392212,2.4393630027770996,0.7694330215454102
1752116319124703000,5.636702880859375,-0.5176230072975159,1.6639529466629028,0.7720639705657959
1752116319134556700,5.646556640625,-0.8319889903068542,0.6566569805145264,0.6316050291061401
1752116319144410400,5.656410400390625,-1.2597559690475464,-0.5129200220108032,0.2663559913635254
1752116319154264000,5.66626416015625,-0.7747690081596375,-1.7462079524993896,-1.0737169981002808
1752116319164117800,5.67611767578125,-0.10014999657869339,-1.8338710069656372,-0.29326099157333374
1752116319173971500,5.685971435546875,0.06332399696111679,-1.9177570343017578,-0.06998399645090103
1752116319183825200,5.6958251953125,0.14297200739383698,-2.289902925491333,-0.3951770067214966
1752116319193678800,5.705678955078125,0.8605890274047852,-3.587670087814331,-0.1879979968070984
1752116319203532500,5.715532470703125,0.8629500269889832,-2.8440330028533936,0.07372300326824188
1752116319213386200,5.72538623046875,0.25644201040267944,-1.4703199863433838,-0.17634999752044678
1752116319223240000,5.735239990234375,0.00139999995008111,-0.432545006275177,-0.2707799971103668
1752116319233093600,5.74509375,0.02631000056862831,0.11015299707651138,-0.36637699604034424
1752116319242947300,5.754947265625,-0.09701400250196457,0.2981739938259125,-0.38728201389312744
1752116319252801000,5.764801025390625,-0.42545801401138306,0.4783309996128082,-0.43226200342178345
1752116319262654700,5.77465478515625,-0.5992670059204102,0.7959589958190918,-0.6424430012702942
1752116319272508400,5.78450830078125,-0.46365800499916077,0.8259119987487793,-0.7060850262641907
1752116319282362000,5.794362060546875,-0.43681201338768005,0.7303910255432129,-0.7311570048332214
1752116319292215800,5.8042158203125,-0.33590900897979736,0.542389988899231,-0.5652070045471191
1752116319302069500,5.814069580078125,0.07536599785089493,0.26200100779533386,-0.5734750032424927
1752116319311923200,5.823923095703125,0.49247899651527405,-0.19718000292778015,-0.33459600806236267
1752116319321777000,5.83377685546875,0.23563000559806824,-0.6689609885215759,0.16551099717617035
1752116319331630600,5.843630615234375,-0.06005999818444252,-1.2050650119781494,0.7197840213775635
1752116319341484500,5.853484619140625,0.5885599851608276,-0.9683259725570679,0.6531649827957153
1752116319351338000,5.863337890625,-0.20779700577259064,-0.7127079963684082,0.5127080082893372
1752116319361192000,5.87319189453125,-0.3968830108642578,-0.6213459968566895,0.37321099638938904
1752116319371045400,5.88304541015625,-0.326092004776001,-0.33355599641799927,0.19290399551391602
1752116319380899000,5.892899169921875,-0.14319199323654175,-0.06101299822330475,0.15824800729751587
1752116319390752800,5.902752685546875,0.03466299921274185,0.12453500181436539,0.20493699610233307
1752116319400606500,5.9126064453125,0.09988400340080261,0.29757198691368103,0.1692110002040863
1752116319410460400,5.92246044921875,-0.011874999850988388,0.449413001537323,0.11821199953556061
1752116319420313900,5.93231396484375,-0.08487199991941452,0.4756210148334503,0.06231600046157837
1752116319430167800,5.942167724609375,-0.047370001673698425,0.4813219904899597,-0.017412999644875526
1752116319440021200,5.952021240234375,-0.09778200089931488,0.419283002614975,0.009103000164031982
1752116319449875200,5.961875244140625,-0.03042599931359291,0.3078339993953705,0.1505959928035736
1752116319459728600,5.971728759765625,0.027349000796675682,0.15785600244998932,0.21198299527168274
1752116319469582600,5.98158251953125,-0.08015900105237961,0.014852999709546566,0.20175699889659882
1752116319479436000,5.99143603515625,-0.15652300417423248,-0.096841000020504,0.16597700119018555
1752116319489290000,6.0012900390625,-0.21851299703121185,-0.07907599955797195,0.08552999794483185
1752116319499143400,6.011143310546875,-0.22499500215053558,-0.0238840002566576,0.032593999058008194
1752116319508997400,6.020997314453125,-0.14943300187587738,0.04280199855566025,0.037206001579761505
1752116319518851000,6.03085107421875,-0.06137999892234802,0.05350099876523018,0.048576999455690384
1752116319528704800,6.040704833984375,0.06029300019145012,0.054517000913619995,0.11522000283002853
1752116319538558500,6.050558349609375,0.0839729979634285,-0.02323400042951107,0.13246400654315948
1752116319548412200,6.060412109375,0.062088001519441605,-0.022390000522136688,0.12474600225687027
1752116319558265900,6.070265869140625,0.04532400146126747,-0.010998999699950218,0.040279000997543335
1752116319568119600,6.08011962890625,0.043175000697374344,0.020162999629974365,-0.02569900080561638
1752116319577973200,6.08997314453125,0.02950200065970421,0.012037999927997589,-0.05774800106883049
1752116319587827000,6.099826904296875,0.01850000023841858,-0.009499000385403633,-0.04362700134515762
1752116319597680600,6.1096806640625,-0.00686099985614419,-0.011660000309348106,-0.06431099772453308
1752116319607534300,6.119534423828125,0.018076999112963676,-0.042312998324632645,-0.0529480017721653
1752116319617388000,6.129387939453125,-0.01691400073468685,-0.017959000542759895,-0.12449900060892105
1752116319627241700,6.13924169921875,-0.03028300032019615,0.039942000061273575,-0.1467750072479248
1752116319637095700,6.149095703125,-0.04349600151181221,0.09352099895477295,-0.18582600355148315
1752116319646949400,6.158949462890625,0.0008120000129565597,0.11100500077009201,-0.16205699741840363
1752116319656802800,6.168802734375,0.01658100076019764,-0.03891900181770325,-0.13066600263118744
1752116319666656800,6.17865673828125,0.012885999865829945,-0.07269299775362015,-0.1268569976091385
1752116319676510200,6.18851025390625,-0.0697920024394989,-0.07302899658679962,-0.07113199681043625
1752116319686364000,6.198364013671875,-0.13815200328826904,0.024821000173687935,-0.06241900101304054
1752116319696217600,6.208217529296875,-0.10572300106287003,0.14045299589633942,-0.1357239931821823
1752116319706071600,6.218071533203125,-0.008500000461935997,0.25211799144744873,-0.2237969934940338
1752116319715925000,6.227925048828125,0.08896300196647644,0.3096790015697479,-0.30577099323272705
1752116319725779000,6.237779052734375,0.24167700111865997,0.23381300270557404,-0.3272559940814972
1752116319735632400,6.24763232421875,0.35377800464630127,0.1269800066947937,-0.30134499073028564
1752116319745486000,6.257486083984375,0.2722429931163788,-0.024396000429987907,-0.2750290036201477
1752116319755339800,6.26733984375,0.05217299982905388,-0.13375799357891083,-0.2876349985599518
1752116319765193500,6.277193359375,-0.24600200355052948,-0.2661930024623871,-0.31366899609565735
1752116319775047200,6.287047119140625,-0.40986600518226624,-0.2798730134963989,-0.4024980068206787
1752116319784901000,6.296901123046875,-0.42548999190330505,-0.2337850034236908,-0.48573699593544006
1752116319794754600,6.306754638671875,-0.3748359978199005,-0.13232900202274323,-0.38352999091148376
1752116319804608500,6.3166083984375,-0.1842699944972992,-0.04669199883937836,-0.37877699732780457
1752116319814462200,6.326462158203125,-0.04524800181388855,-0.07021400332450867,-0.35791799426078796
1752116319824316000,6.33631591796875,0.0517750009894371,-0.08581099659204483,-0.36739999055862427
1752116319834169600,6.346169677734375,-0.07960399985313416,-0.042082998901605606,-0.3874019980430603
1752116319844023300,6.356023193359375,-0.3022350072860718,0.03189000114798546,-0.3671259880065918
1752116319853877000,6.365876953125,-0.47928500175476074,0.09655199944972992,-0.33212900161743164
1752116319863730700,6.375730712890625,-0.43131598830223083,0.25440698862075806,-0.3594619929790497
1752116319873584400,6.38558447265625,-0.28039899468421936,0.34728100895881653,-0.30715200304985046
1752116319883438000,6.39543798828125,-0.11977100372314453,0.3561680018901825,-0.09082700312137604
1752116319893291800,6.405291748046875,0.07892400026321411,0.32565999031066895,-0.032607998698949814
1752116319903145500,6.4151455078125,0.15325899422168732,0.21378199756145477,0.2075980007648468
1752116319912999200,6.424999267578125,0.2297700047492981,0.21144899725914001,0.15369799733161926
1752116319922852900,6.434852783203125,0.28244298696517944,0.20225800573825836,0.23416100442409515
1752116319932706600,6.44470654296875,0.25912898778915405,0.11107400059700012,0.4676179885864258
1752116319942560300,6.454560302734375,0.2894879877567291,-0.13285599648952484,0.7630770206451416
1752116319952414000,6.4644140625,0.28677600622177124,-0.3539080023765564,0.9029949903488159
1752116319962267600,6.474267578125,0.13819199800491333,-0.5027819871902466,0.9651100039482117
1752116319972121300,6.484121337890625,0.0059910002164542675,-0.4685159921646118,0.935463011264801
1752116319991829000,6.5038291015625,-0.30207300186157227,-0.13448500633239746,0.8768439888954163
1752116320001682700,6.5136826171875,-0.30514299869537354,0.07804500311613083,0.7652419805526733
1752116320011536400,6.523536376953125,-0.15721699595451355,0.19272400438785553,0.6791290044784546
1752116320021389800,6.533389892578125,-0.04297700151801109,0.29491499066352844,0.6288939714431763
1752116320031243800,6.543243896484375,0.11658500134944916,0.32962900400161743,0.5671839714050293
1752116320041097200,6.55309716796875,0.1803559958934784,0.3355970084667206,0.4723469913005829
1752116320050951200,6.562951171875,0.1725900024175644,0.32118499279022217,0.26210999488830566
1752116320060804900,6.572804931640625,0.09128499776124954,0.23716099560260773,0.15839900076389313
1752116320070658600,6.582658447265625,0.0368489995598793,0.15237000584602356,0.19387200474739075
1752116320080512000,6.592511962890625,0.03806700184941292,0.04062100127339363,0.2846820056438446
1752116320090366000,6.602365966796875,0.15895499289035797,-0.023412000387907028,0.2699599862098694
1752116320100219600,6.6122197265625,0.2510499954223633,-0.10442300140857697,0.2526310086250305
1752116320110073300,6.6220732421875,0.17764399945735931,-0.1336130052804947,0.18519799411296844
1752116320119927000,6.631927001953125,-0.00609700009226799,-0.10809700191020966,0.13823099434375763
1752116320129780700,6.64178076171875,-0.20419199764728546,-0.055806998163461685,0.03856100142002106
1752116320139634400,6.651634521484375,-0.2776679992675781,-0.03141799941658974,-0.113305002450943
1752116320149488000,6.661488037109375,-0.24563199281692505,0.010273000225424767,-0.1665859967470169
1752116320159341800,6.671341796875,-0.10841400176286697,0.013078000396490097,-0.20597000420093536
1752116320169195800,6.68119580078125,0.023777000606060028,-0.0640840008854866,-0.17265400290489197
1752116320179049200,6.69104931640625,0.06207999959588051,-0.11660700291395187,-0.056720998138189316
1752116320188903200,6.700903076171875,-0.00547999981790781,-0.1442829966545105,-0.02203500084578991
1752116320198756600,6.710756591796875,-0.11651299893856049,-0.16319000720977783,-0.03105900064110756
1752116320208610600,6.720610595703125,-0.22998400032520294,-0.15327000617980957,0.0427200011909008
1752116320218464000,6.730464111328125,-0.17839199304580688,-0.1388619989156723,0.07182499766349792
1752116320228318000,6.74031787109375,-0.13658200204372406,-0.060364000499248505,0.13241000473499298
1752116320238171400,6.75017138671875,0.012473000213503838,0.007187000010162592,0.1937129944562912
1752116320248025300,6.760025390625,0.16791300475597382,0.034299999475479126,0.17042900621891022
1752116320257879000,6.769879150390625,0.44631901383399963,-0.04788300022482872,0.10586400330066681
1752116320267732700,6.779732666015625,0.4263969957828522,-0.16733099520206451,0.1341940015554428
1752116320277586400,6.78958642578125,0.36534300446510315,-0.30445200204849243,0.09442300349473953
1752116320287440100,6.799440185546875,0.37894999980926514,-0.3996860086917877,0.12225300073623657
1752116320297293800,6.8092939453125,0.4458799958229065,-0.4359610080718994,0.169637992978096
1752116320307147500,6.8191474609375,0.5181159973144531,-0.5168700218200684,0.3228200078010559
1752116320317001200,6.829001220703125,0.595067024230957,-0.4835210144519806,0.3464230000972748
1752116320326855200,6.838855224609375,0.6425560116767883,-0.43823400139808655,0.3477939963340759
1752116320336708600,6.84870849609375,0.6720259785652161,-0.3536350131034851,0.37504100799560547
1752116320346562600,6.8585625,0.609237015247345,-0.23442399501800537,0.3585669994354248
1752116320356416000,6.868416015625,0.567313015460968,-0.1937279999256134,0.32803499698638916
1752116320366270000,6.87827001953125,0.5800079703330994,-0.19750100374221802,0.3474859893321991
1752116320376123400,6.888123291015625,0.6498730182647705,-0.23826000094413757,0.39978599548339844
1752116320385977300,6.897977294921875,0.8393200039863586,-0.3659679889678955,0.4005729854106903
1752116320395830800,6.907830810546875,1.0904510021209717,-0.522275984287262,0.4705730080604553
1752116320405684700,6.917684814453125,1.3552089929580688,-0.8873699903488159,0.6935650110244751
1752116320415538200,6.9275380859375,1.5255990028381348,-1.3094279766082764,0.9077860116958618
1752116320425392000,6.93739208984375,1.391332983970642,-1.7448110580444336,1.2923280000686646
1752116320435245600,6.94724560546875,0.8855710029602051,-1.8484580516815186,1.4317220449447632
1752116320445099500,6.957099609375,0.07346700131893158,-1.5132739543914795,1.23601496219635
1752116320454953200,6.966953125,-0.8510630130767822,-0.7014880180358887,0.5911800265312195
1752116320464807000,6.976806884765625,-1.4773939847946167,0.41599100828170776,-0.12926700711250305
1752116320474660600,6.98666064453125,-1.7160700559616089,1.1753109693527222,-0.886430025100708
1752116320484514300,6.996514404296875,-1.7290270328521729,1.7260760068893433,-1.4821189641952515
1752116320494368000,7.006367919921875,-1.7477209568023682,2.0368409156799316,-1.9307620525360107
1752116320504221700,7.0162216796875,-1.848338007926941,2.0825469493865967,-2.073525905609131
1752116320514075400,7.026075439453125,-2.0358328819274902,2.075166940689087,-1.928961992263794
1752116320523929300,7.035929443359375,-2.288844108581543,2.0179150104522705,-1.7167279720306396
1752116320533782800,7.04578271484375,-2.6433799266815186,1.925642967224121,-1.266008973121643
1752116320543636500,7.055636474609375,-3.099234104156494,1.9921519756317139,-0.7759190201759338
1752116320553490200,7.065490234375,-3.318942070007324,2.230926990509033,-0.3979789912700653
1752116320563344100,7.07534423828125,-3.5773730278015137,2.4842050075531006,-0.24495400488376617
1752116320573197600,7.085197509765625,-3.8020009994506836,2.6630859375,-0.31959599256515503
1752116320583051500,7.095051513671875,-3.8770930767059326,2.737529993057251,-0.6612780094146729
1752116320592905000,7.104905029296875,-3.8256731033325195,2.6886839866638184,-0.912102997303009
1752116320602759000,7.114759033203125,-3.541559934616089,2.3916969299316406,-1.121427059173584
1752116320612612600,7.124612548828125,-3.0485761165618896,1.9203649759292603,-1.0769109725952148
1752116320622466300,7.13446630859375,-2.0240349769592285,1.3658599853515625,-0.7780719995498657
1752116320632320000,7.144320068359375,-0.046473000198602676,1.1619369983673096,-0.5627409815788269
1752116320642173700,7.154173583984375,2.1152141094207764,0.32867398858070374,0.004639000166207552
1752116320652027400,7.16402734375,3.842245101928711,-1.9627840518951416,0.7022969722747803
1752116320661881000,7.173881103515625,4.8205342292785645,-3.227375030517578,1.585631012916565
1752116320671734800,7.18373486328125,3.7002649307250977,-3.4708011150360107,1.4950109720230103
1752116320681588500,7.19358837890625,3.0229148864746094,-3.5627870559692383,1.1820429563522339
1752116320691442200,7.203442138671875,3.2083818912506104,-3.9563488960266113,1.067484974861145
1752116320701296000,7.213296142578125,4.031314849853516,-6.054962158203125,1.3305820226669312
1752116320711149600,7.223149658203125,4.758240222930908,-8.176250457763672,1.7175029516220093
1752116320721003500,7.23300341796875,4.7202582359313965,-8.237494468688965,1.592350959777832
1752116320730857000,7.24285693359375,3.9345510005950928,-6.634151935577393,1.692188024520874
1752116320740711000,7.2527109375,3.4086201190948486,-3.890738010406494,1.8595869541168213
1752116320750564600,7.262564697265625,2.8743650913238525,-1.8718990087509155,1.8153079748153687
1752116320760418300,7.272418212890625,1.907763957977295,-0.679947018623352,1.5475720167160034
1752116320770272000,7.28227197265625,0.6645439863204956,0.8999720215797424,0.5804129838943481
1752116320780125700,7.292125732421875,-0.842058002948761,2.113611936569214,-0.1432339996099472
1752116320789979400,7.3019794921875,-2.5817620754241943,2.6603660583496094,-0.2555600106716156
1752116320799833000,7.3118330078125,-3.6395699977874756,3.041836977005005,-0.2721480131149292
1752116320809686800,7.321686767578125,-4.4304518699646,3.2651829719543457,-0.23349300026893616
1752116320819540700,7.331540771484375,-4.616002082824707,3.1520040035247803,-0.11927399784326553
1752116320829394200,7.341394287109375,-4.3585309982299805,2.7418909072875977,-0.05881199985742569
1752116320839248100,7.351248046875,-3.888843059539795,2.0868520736694336,0.02186799980700016
1752116320849101600,7.3611015625,-3.5419280529022217,1.5698540210723877,-0.04809900000691414
1752116320858955300,7.370955322265625,-3.149509906768799,1.2589900493621826,-0.43303999304771423
1752116320868809000,7.38080908203125,-2.6609489917755127,1.0944219827651978,-0.7522079944610596
1752116320878662700,7.39066259765625,-2.1143300533294678,1.1592220067977905,-0.9935309886932373
1752116320888516400,7.400516357421875,-1.6030550003051758,1.4697020053863525,-1.3880729675292969
1752116320898370300,7.410370361328125,-1.2292920351028442,1.848039984703064,-1.936946988105774
1752116320908224000,7.42022412109375,-0.9452549815177917,2.0924079418182373,-2.418837070465088
1752116320918077700,7.43007763671875,-0.5911170244216919,2.262631893157959,-2.5743300914764404
1752116320927931400,7.439931396484375,-0.024617999792099,2.502060890197754,-2.2262070178985596
1752116320937785000,7.44978515625,0.6235439777374268,1.6558200120925903,-1.5472990274429321
1752116320947638800,7.459638671875,1.8422590494155884,-0.6428220272064209,-0.2878299951553345
1752116320957492500,7.469492431640625,2.889431953430176,-2.69412899017334,1.0923839807510376
1752116320967346200,7.47934619140625,2.9660580158233643,-4.0255961418151855,2.0985710620880127
1752116320977200000,7.4892001953125,2.3305509090423584,-4.552574157714844,3.0320959091186523
1752116320987053800,7.4990537109375,1.4905179738998413,-4.182531833648682,3.1778829097747803
1752116320996907500,7.508907470703125,0.5066350102424622,-3.051132917404175,2.3496150970458984
1752116321006761200,7.51876123046875,0.06544099748134613,-1.6959290504455566,1.490733027458191
1752116321016615000,7.528614990234375,0.08840399980545044,-0.4421229958534241,0.9002919793128967
1752116321026468600,7.538468505859375,0.18275600671768188,0.5102329850196838,0.7141789793968201
1752116321036322300,7.548322265625,0.19638000428676605,0.9462119936943054,0.46560001373291016
1752116321046176000,7.558176025390625,-0.0562019981443882,0.9392300248146057,0.3903839886188507
1752116321056029700,7.56802978515625,-0.3890460133552551,0.5451549887657166,0.30879899859428406
1752116321065883400,7.57788330078125,-0.844406008720398,0.11185699701309204,0.3029229938983917
1752116321075737000,7.587737060546875,-0.9555609822273254,-0.09043800085783005,0.11665000021457672
1752116321085590800,7.5975908203125,-0.813946008682251,-0.17813900113105774,-0.06210099905729294
1752116321095444700,7.60744482421875,-0.5280389785766602,-0.16565300524234772,-0.08941899985074997
1752116321105298200,7.617298095703125,-0.18255400657653809,-0.015029000118374825,-0.32435300946235657
1752116321115152000,7.62715185546875,0.006399000063538551,0.24299299716949463,-0.5894110202789307
1752116321125005600,7.637005615234375,0.036442000418901443,0.45279398560523987,-0.7065969705581665
1752116321134859500,7.646859619140625,-0.27164798974990845,0.6222860217094421,-0.2624010145664215
1752116321144713200,7.656713134765625,-0.10531999915838242,0.5196300148963928,-0.07593899965286255
1752116321154567000,7.66656689453125,-0.14697399735450745,0.36014100909233093,-0.06835000216960907
1752116321164420600,7.676420654296875,-0.02543400041759014,0.13419899344444275,0.12758100032806396
1752116321174274300,7.6862744140625,-0.07107699662446976,0.06508699804544449,0.5290449857711792
1752116321184128000,7.6961279296875,0.2113019973039627,-0.09172800183296204,0.23986400663852692
1752116321193981700,7.705981689453125,0.605430006980896,-0.2504819929599762,0.05522900074720383
1752116321203835400,7.71583544921875,0.8593440055847168,-0.35345399379730225,0.0039820000529289246
1752116321213689000,7.725689208984375,0.6434450149536133,-0.36939701437950134,0.20375600457191467
1752116321223542800,7.735542724609375,0.4488160014152527,-0.359811007976532,0.5842009782791138
1752116321233396700,7.745396728515625,0.2869809865951538,-0.31852298974990845,0.01689399965107441
1752116321243250200,7.755250244140625,0.1652580052614212,-0.24121999740600586,0.39805200695991516
1752116321253104000,7.765104248046875,-0.38203999400138855,-0.138264998793602,0.9344189763069153
1752116321262957600,7.77495751953125,-0.1824669986963272,-0.06918399780988693,0.636451005935669
1752116321272811500,7.7848115234375,0.02578900009393692,0.06159999966621399,0.29889601469039917
1752116321282665200,7.794665283203125,-0.2778269946575165,0.09316200017929077,0.5688890218734741
1752116321292519200,7.804519287109375,-0.025250999256968498,0.06241700053215027,0.6822109818458557
1752116321302372600,7.81437255859375,0.006895999889820814,0.09139800071716309,-0.2833920121192932
1752116321312226300,7.824226318359375,0.0629810020327568,0.10295899957418442,0.026923000812530518
1752116321322080000,7.834080078125,-0.4474709928035736,0.18231800198554993,0.2918449938297272
1752116321331933700,7.84393359375,-0.07457999885082245,0.1701579988002777,-0.013249999843537807
1752116321341787400,7.853787353515625,0.08000600337982178,0.11560399830341339,0.08477699756622314
1752116321351641300,7.863641357421875,-0.09960299730300903,0.05008000135421753,0.3688490092754364
1752116321361494800,7.873494873046875,0.06782600283622742,-0.024512000381946564,-0.5057600140571594
1752116321371348700,7.8833486328125,0.1254200041294098,-0.13215699791908264,0.07811100035905838
1752116321381202400,7.893202392578125,-0.005764000117778778,-0.19462500512599945,-0.261027991771698
1752116321391056100,7.90305615234375,0.2977670133113861,-0.047426000237464905,-0.5961390137672424
1752116321400909800,7.912909912109375,-0.3793399930000305,-0.041499000042676926,0.7072250247001648
1752116321410763500,7.922763427734375,-0.0368570014834404,-0.1671299934387207,-0.6361269950866699
1752116321420617200,7.9326171875,0.26612401008605957,0.03283600136637688,-0.02600800059735775
1752116321430471000,7.942470947265625,-0.1342020034790039,-0.06415499746799469,0.04696900025010109
1752116321440324600,7.95232470703125,0.1391189992427826,0.2626659870147705,-0.45211800932884216
1752116321450178600,7.962178466796875,-0.6203809976577759,0.2676919996738434,1.1562949419021606
1752116321460032000,7.972031982421875,-0.1040240004658699,0.05554899945855141,-0.8245769739151001
1752116321469886000,7.981885986328125,-0.17412300407886505,0.2278120070695877,0.6726740002632141
1752116321479739400,7.991739501953125,0.007102999836206436,0.11110100150108337,-0.29280200600624084
1752116321489593300,8.00159326171875,0.05153900012373924,0.21060499548912048,0.10196299850940704
1752116321499447000,8.011447021484376,0.19698600471019745,0.14820800721645355,0.5821710228919983
1752116321509300700,8.02130078125,0.3027859926223755,0.3234559893608093,-0.3553839921951294
1752116321519154400,8.031154541015624,0.0554409995675087,0.13518600165843964,0.9603099822998047
1752116321529008000,8.041008056640624,0.18481400609016418,0.35221800208091736,-0.3313849866390228
1752116321538861800,8.05086181640625,0.05234900116920471,0.17092299461364746,1.331563949584961
1752116321548715500,8.060715576171875,0.2511950135231018,0.30732399225234985,-0.704364001750946
1752116321558569200,8.0705693359375,-0.008833000436425209,0.284278005361557,0.9533209800720215
1752116321568423000,8.0804228515625,0.08422599732875824,0.3612149953842163,-0.42013099789619446
1752116321578276600,8.090276611328125,0.15838800370693207,0.4803979992866516,0.8582190275192261
1752116321588130600,8.100130615234375,0.20747999846935272,0.5605080127716064,-0.21941399574279785
1752116321597984000,8.10998388671875,0.4139690101146698,0.723143994808197,0.4318050146102905
1752116321607838000,8.119837890625,0.2034270018339157,0.7911869883537292,-0.04356599971652031
1752116321617691400,8.12969140625,0.3808650076389313,0.8686249852180481,0.2972320020198822
1752116321627545300,8.13954541015625,0.18986299633979797,0.9089959859848022,0.10414200276136398
1752116321637399000,8.14939892578125,0.4799109995365143,0.9603099822998047,0.14736999571323395
1752116321647252700,8.159252685546875,-0.18439599871635437,1.0241669416427612,0.5778499841690063
1752116321657106400,8.1691064453125,0.45112401247024536,1.0156559944152832,0.030386999249458313
1752116321666960400,8.17896044921875,0.08387599885463715,1.0629199743270874,0.43355798721313477
1752116321676813800,8.188813720703125,0.42531999945640564,0.9424219727516174,0.2337539941072464
1752116321686667800,8.198667724609376,0.40748900175094604,0.9910719990730286,0.3443390130996704
1752116321696521500,8.208521484375,0.38526299595832825,0.8255019783973694,0.24143299460411072
1752116321706375000,8.218375,0.6709330081939697,0.9364219903945923,0.18326300382614136
1752116321716228600,8.228228515625,0.2288919985294342,0.9876019954681396,0.43266400694847107
1752116321726082600,8.23808251953125,0.619396984577179,1.0293710231781006,0.16555100679397583
1752116321735936300,8.247936279296875,0.29823800921440125,1.2509690523147583,0.09635800123214722
1752116321745790000,8.2577900390625,0.18325600028038025,1.2577650547027588,0.32347598671913147
1752116321755643600,8.2676435546875,0.25200000405311584,1.3893829584121704,0.0702970027923584
1752116321765497300,8.277497314453125,0.1293559968471527,1.5114799737930298,0.0936020016670227
1752116321775351000,8.28735107421875,0.33476200699806213,1.5467419624328613,0.24424299597740173
1752116321785204700,8.297204833984376,0.15718600153923035,1.6824129819869995,0.24779999256134033
1752116321795058400,8.307058349609376,0.25352200865745544,1.5670709609985352,0.5898270010948181
1752116321804912400,8.316912353515624,0.4189879894256592,1.5847619771957397,0.26367899775505066
1752116321814765800,8.326765869140624,0.2738800048828125,1.5827490091323853,0.49963200092315674
1752116321824619800,8.336619873046875,0.3329020142555237,1.350746989250183,0.5818129777908325
1752116321834473200,8.34647314453125,0.5062299966812134,1.4657789468765259,-0.007009999826550484
1752116321844327200,8.3563271484375,0.23510900139808655,1.464764952659607,0.8952550292015076
1752116321854180900,8.366180908203125,0.4952029883861542,1.3814719915390015,0.4501889944076538
1752116321864034600,8.37603466796875,0.6977220177650452,1.4912090301513672,0.28768599033355713
1752116321873888300,8.38588818359375,0.04889199882745743,1.3381940126419067,0.9929360151290894
1752116321883742000,8.395741943359376,0.5771030187606812,1.4702470302581787,-0.03521500155329704
1752116321893595600,8.405595703125,0.5000050067901611,1.6173069477081299,0.33426299691200256
1752116321903449300,8.415449462890624,-0.07506100088357925,1.5727620124816895,0.6106929779052734
1752116321913303000,8.425302978515624,0.7470899820327759,1.8717550039291382,-0.05885399878025055
1752116321923157000,8.435156982421875,0.12171199917793274,1.6343729496002197,1.0738619565963745
1752116321933010400,8.445010498046875,0.5098170042037964,1.4283490180969238,0.24142499268054962
1752116321942864400,8.454864501953125,0.5765799880027771,1.5524250268936157,0.6116120219230652
1752116321952717800,8.4647177734375,-0.06955000013113022,1.0683670043945312,0.988493025302887
1752116321962571800,8.47457177734375,0.5710129737854004,1.116137981414795,-0.12349499762058258
1752116321972425500,8.484425537109376,-0.04691300168633461,1.2232120037078857,1.340101957321167
1752116321982279200,8.494279052734376,-0.05933000147342682,0.9915109872817993,0.9737470149993896
1752116321992132900,8.5041328125,0.6867560148239136,1.1311479806900024,0.5476229786872864
1752116322001986600,8.513986572265624,-0.3951900005340576,1.210824966430664,1.745386004447937
1752116322011840300,8.52384033203125,0.6527299880981445,1.4511879682540894,0.22113099694252014
1752116322021694000,8.53369384765625,0.20507599413394928,1.7250950336456299,0.6417580246925354
1752116322031548000,8.5435478515625,-0.5461369752883911,1.8819719552993774,0.8518999814987183
1752116322041401600,8.553401611328125,0.2968730032444,2.175010919570923,-0.021717000752687454
1752116322051255300,8.56325537109375,-0.7880539894104004,1.9824470281600952,1.0481690168380737
1752116322061109000,8.57310888671875,-0.050930000841617584,1.863569974899292,0.22648100554943085
1752116322070962700,8.582962646484376,-0.1217690035700798,1.7306280136108398,0.6679980158805847
1752116322080816400,8.59281640625,-0.3306640088558197,1.5279079675674438,0.6210709810256958
1752116322090670000,8.602670166015624,0.42284101247787476,1.6243540048599243,-0.09424600005149841
1752116322100523800,8.612523681640624,-0.27048298716545105,1.5290989875793457,0.8681849837303162
1752116322110377500,8.62237744140625,0.3626039922237396,1.3684580326080322,0.09570799767971039
1752116322120231400,8.6322314453125,0.684840977191925,1.3917380571365356,0.12747499346733093
1752116322130085000,8.642085205078125,0.20327499508857727,1.2270569801330566,0.7454249858856201
1752116322139938800,8.651938720703125,1.2195780277252197,1.2323460578918457,-0.12941500544548035
1752116322149792500,8.66179248046875,0.6202700138092041,1.1598540544509888,0.6125460267066956
1752116322159646200,8.671646240234375,0.6689130067825317,1.1008210182189941,0.2933259904384613
1752116322169500000,8.6815,0.9347869753837585,1.2541630268096924,0.2781209945678711
1752116322179353600,8.691353515625,0.2573220133781433,1.2576910257339478,0.5971459746360779
1752116322189207300,8.701207275390624,0.8886449933052063,1.3598660230636597,-0.062779001891613
1752116322199061000,8.71106103515625,0.27549201250076294,1.5044039487838745,0.8220199942588806
1752116322208914700,8.720914794921875,0.39217400550842285,1.3614720106124878,0.2897129952907562
1752116322218768400,8.730768310546875,0.5592439770698547,1.3585480451583862,0.2965889871120453
1752116322228622300,8.740622314453125,-0.28119900822639465,1.3036179542541504,0.8104150295257568
1752116322238476000,8.75047607421875,0.6278939843177795,1.0366950035095215,-0.16958999633789062
1752116322248329700,8.760329833984375,0.3046410083770752,1.213310956954956,0.3593769967556
1752116322258183400,8.770183349609376,0.29229700565338135,1.2678929567337036,0.24197599291801453
1752116322268037000,8.780037109375,0.6315709948539734,1.3351349830627441,0.12501199543476105
1752116322277890800,8.789890869140624,0.13071300089359283,1.1201269626617432,0.4440380036830902
1752116322287744500,8.79974462890625,0.7613080143928528,0.9194319844245911,-0.42715999484062195
1752116322297598200,8.80959814453125,0.266961008310318,0.8539180159568787,0.1389559954404831
1752116322307452000,8.819451904296875,0.5456370115280151,0.34125399589538574,-0.6840410232543945
1752116322317305900,8.829305908203125,0.7839720249176025,0.5130450129508972,-0.5201129913330078
1752116322327159600,8.83915966796875,0.24245600402355194,0.7440950274467468,0.25413501262664795
1752116322337013200,8.84901318359375,0.9548599720001221,0.8282219767570496,-0.523872971534729
1752116322346867000,8.858866943359375,0.6218960285186768,1.0369449853897095,0.1572369933128357
1752116322356720600,8.868720703125,0.7625719904899597,0.8585280179977417,-0.49663400650024414
1752116322366574300,8.87857421875,0.7194870114326477,0.8846020102500916,-0.5480769872665405
1752116322376428000,8.888427978515624,0.2871609926223755,0.6351169943809509,-0.36781999468803406
1752116322386282000,8.898281982421874,0.7672520279884338,0.7484800219535828,-0.6867139935493469
1752116322396135400,8.908135498046875,0.1354680061340332,0.7959269881248474,0.32170599699020386
1752116322405989000,8.917989013671875,0.7626349925994873,0.48302000761032104,-0.4832110106945038
1752116322415842800,8.9278427734375,0.5668410062789917,0.7084599733352661,-0.041721001267433167
1752116322425696800,8.93769677734375,0.23931600153446198,0.8157489895820618,0.19879600405693054
1752116322435550200,8.94755029296875,0.2829369902610779,0.9546759724617004,-0.09172700345516205
1752116322445404000,8.95740380859375,-0.3303290009498596,0.9673939943313599,0.5874969959259033
1752116322455257900,8.9672578125,0.24101600050926208,0.9597529768943787,-0.020634999498724937
1752116322465111600,8.977111572265626,-0.49125000834465027,0.9798790216445923,0.9572820067405701
1752116322474965200,8.98696533203125,0.18627899885177612,0.7202739715576172,0.40622401237487793
1752116322484819000,8.99681884765625,0.4021739959716797,0.7420949935913086,0.5755760073661804
1752116322494672600,9.006672607421875,0.19696399569511414,0.57771897315979,0.8998619914054871
1752116322504526300,9.0165263671875,1.0154069662094116,0.4455620050430298,0.17414499819278717
1752116322514380000,9.026380126953125,0.522163987159729,0.45212501287460327,0.6343079805374146
1752116322524234000,9.03623388671875,1.0572060346603394,0.7165300250053406,0.2272689938545227
1752116322534087400,9.04608740234375,0.47388800978660583,1.181386947631836,0.7085999846458435
1752116322543941400,9.05594140625,0.3810569941997528,1.2245780229568481,0.4401549994945526
1752116322553794800,9.065794921875,0.08705499768257141,1.381803035736084,0.5382599830627441
1752116322563648800,9.075648681640626,-0.6880580186843872,1.4136329889297485,0.8402029871940613
1752116322573502500,9.08550244140625,-0.4441260099411011,1.1934080123901367,0.41135698556900024
1752116322583356200,9.095356201171874,-0.8631669878959656,1.1416269540786743,0.7538170218467712
1752116322593209900,9.1052099609375,-0.5148410201072693,0.6793910264968872,0.4525800049304962
1752116322603063600,9.1150634765625,-0.19143100082874298,0.6061519980430603,0.163783997297287
1752116322612917200,9.124917236328125,0.11456400156021118,0.4131760001182556,0.03141200169920921
1752116322622771200,9.134771240234375,0.9212329983711243,0.7039589881896973,-0.46458500623703003
1752116322632624600,9.144624755859375,0.2978309988975525,1.1086989641189575,0.059043001383543015
1752116322642478600,9.154478515625,0.9056140184402466,1.0612080097198486,-0.7317489981651306
1752116322652332000,9.16433203125,0.5368049740791321,1.1616820096969604,-0.43442898988723755
1752116322662186000,9.17418603515625,0.07243199646472931,0.9383500218391418,-0.3981100022792816
1752116322672039700,9.184039794921874,-0.21962599456310272,0.6590719819068909,-0.7952849864959717
1752116322681893400,9.193893310546875,-0.7159249782562256,0.3102709949016571,-0.34898999333381653
1752116322691747000,9.2037470703125,-0.22834299504756927,0.025722000747919083,-0.7709450125694275
1752116322701601000,9.21360107421875,-0.6349689960479736,0.22082899510860443,-0.1513810008764267
1752116322711454500,9.223454345703125,-0.15633000433444977,0.0749950036406517,-0.7379670143127441
1752116322721308200,9.23330810546875,0.24360300600528717,0.3435159921646118,-0.6935369968414307
1752116322731161900,9.243161865234375,-0.22023999691009521,0.5344200134277344,-0.14006300270557404
1752116322741015800,9.253015869140626,0.6201609969139099,0.5354390144348145,-1.0534499883651733
1752116322750869200,9.262869140625,-0.1468620002269745,0.640271008014679,-0.20292599499225616
1752116322760723200,9.27272314453125,0.20897400379180908,0.5631279945373535,-0.5276250243186951
1752116322770576600,9.28257666015625,0.194473996758461,0.7799710035324097,-0.10485900193452835
1752116322780430600,9.2924306640625,-0.12782199680805206,0.7191550135612488,0.28444498777389526
1752116322790284000,9.302283935546875,0.7564510107040405,0.7662500143051147,-0.08279900252819061
1752116322800138000,9.312137939453125,0.4182310104370117,0.7844120264053345,0.6939839720726013
1752116322809991700,9.32199169921875,1.314471960067749,0.29438498616218567,-0.06836500018835068
1752116322819845400,9.331845458984375,1.327262043952942,0.29473400115966797,0.27351000905036926
1752116322829699000,9.341698974609375,0.8902209997177124,0.27478399872779846,1.0845409631729126
1752116322839552800,9.351552734375,0.9838050007820129,0.1968279927968979,0.7128419876098633
1752116322849406500,9.361406494140626,0.3047119975090027,0.4372769892215729,1.3250770568847656
1752116322859260200,9.37126025390625,0.05099499970674515,0.540365993976593,1.296396017074585
1752116322869113900,9.38111376953125,0.01934099942445755,0.789775013923645,1.1263940334320068
1752116322878967600,9.390967529296875,-0.5581650137901306,0.5305439829826355,1.2148890495300293
1752116322888821200,9.4008212890625,-0.002111000008881092,0.4719240069389343,0.24299199879169464
1752116322898675200,9.41067529296875,-0.5918229818344116,0.6934490203857422,0.9222869873046875
1752116322908528600,9.420528564453125,-0.3394019901752472,0.5279759764671326,0.2812359929084778
1752116322918382600,9.430382568359375,0.18828000128269196,0.6562680006027222,-0.21185599267482758
1752116322928236300,9.440236328125,-0.5536999702453613,0.772441029548645,0.909421980381012
1752116322938090000,9.450090087890626,0.5395269989967346,0.43588799238204956,-0.3422209918498993
1752116322947943700,9.459943603515624,0.5201950073242188,0.5642200112342834,-0.1062059998512268
1752116322957797400,9.46979736328125,-0.05618999898433685,0.5181059837341309,0.40168699622154236
1752116322967651000,9.479651123046875,1.089858055114746,0.5627250075340271,-0.8067190051078796
1752116322977504800,9.4895048828125,0.3573960065841675,0.43234699964523315,0.016155999153852463
1752116322987358500,9.4993583984375,0.7229290008544922,0.30316099524497986,-0.3388819992542267
1752116322997212400,9.50921240234375,1.150223970413208,0.2587510049343109,-0.23202599585056305
1752116323007066000,9.519066162109375,0.41447898745536804,-0.28982898592948914,0.39964500069618225
1752116323016919800,9.528919921875,0.9486719965934753,-0.43126198649406433,-0.5187829732894897
1752116323026773500,9.5387734375,0.22907400131225586,-0.19534100592136383,0.35545098781585693
1752116323036627200,9.548627197265626,-0.74897301197052,-0.16708600521087646,0.6114950180053711
1752116323046481200,9.558481201171874,-0.28262901306152344,0.16804000735282898,-0.36135900020599365
1752116323056334600,9.56833447265625,-1.0519930124282837,0.46807700395584106,0.9992719888687134
1752116323066188300,9.578188232421875,-0.7564229965209961,0.20969900488853455,0.14323900640010834
1752116323076042200,9.588042236328125,0.4491119980812073,0.24912700057029724,-0.5335339903831482
1752116323085895700,9.597895751953125,0.15775999426841736,-0.07196599990129471,0.34136199951171875
1752116323095749600,9.60774951171875,1.3828970193862915,-0.4047349989414215,-0.9582129716873169
1752116323105603000,9.61760302734375,1.6697659492492676,-0.4602830111980438,-0.6524059772491455
1752116323115457000,9.62745703125,1.1213749647140503,-0.6078529953956604,-0.028999000787734985
1752116323125310500,9.637310546875,1.473844051361084,-0.3016580045223236,-0.7371249794960022
1752116323135164400,9.647164306640626,0.7635049819946289,0.14353999495506287,0.00496899988502264
1752116323145018000,9.65701806640625,-0.6624709963798523,0.599219024181366,0.9606760144233704
1752116323154871800,9.666871826171874,-0.48584699630737305,1.2302900552749634,0.21526600420475006
1752116323164725500,9.6767255859375,-1.3823180198669434,1.0656670331954956,0.9752629995346069
1752116323174579500,9.686579345703125,-1.8399280309677124,0.7077170014381409,0.646996021270752
1752116323184433000,9.696432861328125,-1.2321840524673462,0.6117349863052368,-0.10324600338935852
1752116323194286800,9.706286865234375,-1.4858139753341675,0.2056799978017807,1.0193099975585938
1752116323204140300,9.716140380859375,-0.4630340039730072,-0.09018000215291977,0.6642259955406189
1752116323213994200,9.725994140625,1.1848009824752808,-0.3004390001296997,0.29631999135017395
1752116323223847700,9.73584765625,1.9825170040130615,-0.789463996887207,0.8514119982719421
1752116323233701600,9.74570166015625,3.1051039695739746,-1.183081030845642,0.1643960028886795
1752116323243555300,9.755555419921874,3.287415027618408,-1.2278319597244263,-0.0045289997942745686
1752116323253409000,9.765408935546875,2.2798290252685547,-1.364812970161438,0.16210399568080902
1752116323263262700,9.7752626953125,0.9613170027732849,-0.9078609943389893,-0.1910250037908554
1752116323273116400,9.785116455078125,0.16529099643230438,-0.10031799972057343,-0.5146170258522034
1752116323282970000,9.79497021484375,-1.764551043510437,0.29591599106788635,0.518962025642395
1752116323292823800,9.80482373046875,-2.369396924972534,0.9290199875831604,-0.17683300375938416
1752116323302677500,9.814677490234375,-2.784061908721924,1.3824180364608765,0.31739699840545654
1752116323312531500,9.824531494140626,-3.270824909210205,1.44002103805542,0.61142897605896
1752116323322385000,9.834385009765626,-2.548038959503174,1.4682300090789795,0.07022599875926971
1752116323332238800,9.84423876953125,-1.5192350149154663,1.3536850214004517,-0.2692300081253052
1752116323342092500,9.854092529296874,-1.1726900339126587,0.8189780116081238,0.0049680001102387905
1752116323351946200,9.8639462890625,-0.054336000233888626,0.36841198801994324,-0.1618420034646988
1752116323361800200,9.87380029296875,1.698415994644165,0.1825850009918213,-0.5578160285949707
1752116323371653600,9.883653564453125,1.4980900287628174,-0.5212000012397766,0.5782790184020996
1752116323381507600,9.893507568359375,2.0260839462280273,-1.156195044517517,0.29277199506759644
1752116323391361300,9.903361328125,2.415926933288574,-1.417875051498413,0.11716900020837784
1752116323401214700,9.913214599609375,1.432631015777588,-1.5043050050735474,0.5032960176467896
1752116323411068700,9.923068603515626,0.420989990234375,-1.2285469770431519,0.5855100154876709
1752116323420922400,9.93292236328125,0.19249700009822845,-0.8983830213546753,0.24317699670791626
1752116323430776000,9.942776123046874,-0.22313499450683594,-0.7060149908065796,0.3968920111656189
1752116323440629800,9.952629638671874,-0.6953240036964417,-0.6914669871330261,0.7507230043411255
1752116323450483500,9.9624833984375,-0.24844099581241608,-0.6894649863243103,-0.1160300001502037
1752116323460337200,9.972337158203125,0.5938839912414551,-0.6273300051689148,-1.0191190242767334
1752116323470190800,9.98219091796875,0.3635610044002533,-0.6985380053520203,-0.317438006401062
1752116323480044800,9.992044921875,-0.28523901104927063,-0.7307909727096558,-0.178847998380661
1752116323489898200,10.001898193359375,0.4098609983921051,-0.4259600043296814,-1.2389819622039795
1752116323499752200,10.011752197265626,0.6551849842071533,-0.15871399641036987,-0.659358024597168
1752116323509605600,10.021605712890626,-0.32433000206947327,-0.22204500436782837,0.09548699855804443
1752116323519459600,10.03145947265625,-0.410849004983902,-0.3901660144329071,-0.029090000316500664
1752116323529313300,10.041313232421874,0.5002560019493103,-0.2664810121059418,-0.6646980047225952
1752116323539167000,10.0511669921875,0.4835430085659027,-0.11829099804162979,-0.12536899745464325
1752116323549020700,10.061020751953125,0.030276000499725342,-0.11528400331735611,0.7110409736633301
1752116323558874600,10.07087451171875,0.6588940024375916,0.07486200332641602,0.3706890046596527
1752116323568728000,10.08072802734375,2.058198928833008,0.3268040120601654,-0.1046459972858429
1752116323578582000,10.09058203125,1.532364010810852,0.34668099880218506,1.2108529806137085
1752116323588435500,10.100435546875,0.5086619853973389,0.06820999830961227,1.6386059522628784
1752116323598289400,10.110289306640626,0.6684250235557556,0.06617199629545212,0.6993119716644287
1752116323608142800,10.120142822265626,0.3296230137348175,0.2063779979944229,0.5528969764709473
1752116323617996800,10.129996826171874,-0.99726402759552,0.005532999988645315,0.8871480226516724
1752116323627850500,10.1398505859375,-2.040505886077881,-0.3559330105781555,1.1146559715270996
1752116323637704200,10.1497041015625,-1.2627530097961426,-0.28204700350761414,0.17523999512195587
1752116323647558000,10.159557861328125,-0.6285669803619385,-0.09595700353384018,-0.151855006814003
1752116323657411800,10.169411865234375,-1.562680959701538,-0.23453600704669952,0.9100540280342102
1752116323667265300,10.179265380859375,-1.3686259984970093,-0.382313996553421,0.4550429880619049
1752116323677119200,10.189119140625,0.2126529961824417,0.014007000252604485,-0.755416989326477
1752116323686973000,10.198972900390626,0.8695070147514343,0.3012920022010803,-0.912647008895874
1752116323696826600,10.20882666015625,0.11442600190639496,-0.011838999576866627,-0.3160269856452942
1752116323706680000,10.21868017578125,-0.10959599912166595,-0.4927859902381897,-0.2805030047893524
1752116323716534000,10.228533935546874,0.5839909911155701,-0.820339024066925,-0.7355909943580627
1752116323726387700,10.2383876953125,1.0319160223007202,-0.967399001121521,-0.8173800110816956
1752116323736241400,10.248241455078125,0.543008029460907,-0.9630399942398071,-0.07693599909543991
1752116323746095000,10.25809521484375,-0.19760699570178986,-1.2200740575790405,0.8271459937095642
1752116323755948800,10.26794873046875,-0.24505500495433807,-1.6118930578231812,1.0779190063476562
1752116323765802500,10.277802490234375,0.9835799932479858,-1.706300973892212,0.44749099016189575
1752116323775656400,10.287656494140625,1.607956051826477,-1.655295968055725,0.5466560125350952
1752116323785510000,10.297510009765626,0.8872140049934387,-1.812013030052185,1.5718059539794922
1752116323795363800,10.30736376953125,0.42504099011421204,-2.048548936843872,1.3575750589370728
1752116323805217300,10.31721728515625,0.8574180006980896,-1.9081929922103882,0.6681879758834839
1752116323815071200,10.3270712890625,1.6859699487686157,-1.4139310121536255,-0.2070389986038208
1752116323824925000,10.336925048828125,1.063066005706787,-0.9684200286865234,-0.19755800068378448
1752116323834778600,10.346778564453125,0.035291001200675964,-0.48307400941848755,-0.045492999255657196
1752116323844632300,10.35663232421875,-0.2579039931297302,0.15402600169181824,-0.6134269833564758
1752116323854486300,10.366486328125,-0.1389790028333664,0.5766599774360657,-1.1595720052719116
1752116323864339700,10.376339599609375,-0.20054100453853607,0.7572979927062988,-1.2743860483169556
1752116323874193700,10.386193603515625,-1.1146759986877441,0.6320760250091553,-0.5445209741592407
1752116323884047000,10.396047119140626,-2.0772500038146973,0.3371469974517822,0.22890199720859528
1752116323893901000,10.405901123046876,-2.5192229747772217,-0.06716600060462952,0.4043000042438507
1752116323903754500,10.41575439453125,-2.519871950149536,-0.3289479911327362,0.5350210070610046
1752116323913608400,10.4256083984375,-2.4289278984069824,-0.3231019973754883,0.4408470094203949
1752116323923462100,10.435462158203125,-2.3996059894561768,-0.18542100489139557,0.3673419952392578
1752116323933315800,10.44531591796875,-2.7981159687042236,-0.10079699754714966,0.38654500246047974
1752116323943169500,10.45516943359375,-2.8319320678710938,-0.08608199656009674,-0.2976529896259308
1752116323953023200,10.465023193359375,-1.7475980520248413,-0.01677200011909008,-1.5893410444259644
1752116323962877000,10.474876953125,-1.3591200113296509,0.2281610071659088,-1.7344809770584106
1752116323972731000,10.48473095703125,-3.317533016204834,0.18891799449920654,-0.2992979884147644
1752116323982584300,10.494584228515626,-4.5182318687438965,0.1392499953508377,-0.2327989935874939
1752116323992438000,10.50443798828125,-3.0592188835144043,0.4822179973125458,-1.4564110040664673
1752116324002291700,10.514291748046874,-3.376905918121338,0.6861950159072876,-0.6681110262870789
1752116324012145400,10.5241455078125,-4.72859001159668,0.503741979598999,0.3138970136642456
1752116324021999400,10.533999267578125,-4.211777210235596,0.29619300365448,-0.3175700008869171
1752116324031853000,10.54385302734375,-3.197948932647705,0.4541170001029968,-0.8451589941978455
1752116324041706800,10.553706787109375,-3.41770601272583,0.48684900999069214,-0.402785986661911
1752116324051560400,10.563560546875,-2.457751989364624,0.44212600588798523,-0.4025520086288452
1752116324061414100,10.5734140625,-0.5141810178756714,-0.01564900018274784,-0.7915070056915283
1752116324071267800,10.583267822265626,1.3750760555267334,-1.3440840244293213,-0.5480309724807739
1752116324081121500,10.59312158203125,1.1657589673995972,-3.295619010925293,1.25907301902771
1752116324090975200,10.602975341796874,1.5626059770584106,-4.6732587814331055,0.9591249823570251
1752116324100829000,10.612828857421874,2.5799319744110107,-5.118397235870361,-0.3400770127773285
1752116324110682600,10.6226826171875,1.963871955871582,-4.8896660804748535,0.09752000123262405
1752116324120536300,10.632536376953125,2.3482329845428467,-5.098289966583252,-0.2837989926338196
1752116324130390300,10.642390380859375,5.222814083099365,-5.612668037414551,-1.4666069746017456
1752116324140244000,10.652243896484375,6.662189960479736,-7.576704025268555,-0.277415007352829
1752116324150097700,10.66209765625,6.883922100067139,-9.458273887634277,0.5092020034790039
1752116324159951400,10.671951416015625,6.282717227935791,-9.243816375732422,0.37912601232528687
1752116324169805300,10.681805419921876,4.224240779876709,-7.798595905303955,1.7057600021362305
1752116324179658800,10.69165869140625,2.9463109970092773,-5.289064884185791,2.177772045135498
1752116324189512700,10.7015126953125,2.8468410968780518,-3.6754400730133057,1.971567988395691
1752116324199366100,10.7113662109375,2.1896650791168213,-3.3876149654388428,2.80678391456604
1752116324209220000,10.72122021484375,1.6984829902648926,-2.5751419067382812,2.4105870723724365
1752116324219073500,10.731073486328125,0.6901649832725525,-1.3499419689178467,1.6514569520950317
1752116324228927500,10.740927490234375,-2.0957770347595215,-0.776216983795166,1.333670973777771
1752116324238781200,10.75078125,-4.210276126861572,-0.7022619843482971,-0.5400189757347107
1752116324248635000,10.760634765625,-5.4131269454956055,-0.11945299804210663,-1.4549449682235718
1752116324258488600,10.770488525390626,-6.399110794067383,0.7738710045814514,-1.7220020294189453
1752116324268342300,10.78034228515625,-4.556178092956543,2.2099859714508057,-3.3900439739227295
1752116324278196000,10.790196044921874,-3.976722002029419,2.7693369388580322,-1.8559659719467163
1752116324288050000,10.8000498046875,-3.327862024307251,1.9060770273208618,-1.4447940587997437
1752116324297903400,10.8099033203125,-2.1572630405426025,1.200924038887024,-2.1910018920898438
1752116324307757300,10.81975732421875,-2.8642361164093018,0.3444269895553589,-2.33843994140625
1752116324317611000,10.829611083984375,-2.666574001312256,-0.10085300356149673,-3.551374912261963
1752116324327464700,10.839464599609375,-3.3887670040130615,-0.17047299444675446,-3.347261905670166
1752116324337318400,10.849318359375,-3.2103869915008545,0.2045380026102066,-3.111711025238037
1752116324347172000,10.859172119140625,-2.334825038909912,0.5388619899749756,-2.386230945587158
1752116324357026000,10.869026123046876,0.0652960017323494,1.2090280055999756,-1.8145979642868042
1752116324366879700,10.878879638671876,1.7854219675064087,1.0488460063934326,-1.1582520008087158
1752116324376733200,10.888733154296874,3.8886170387268066,-1.027008056640625,-1.0135300159454346
1752116324386587100,10.898587158203124,4.588957786560059,-2.9544129371643066,0.08818899840116501
1752116324396440800,10.90844091796875,3.906501054763794,-3.4763131141662598,1.460271954536438
1752116324406294500,10.91829443359375,3.1901350021362305,-3.0090460777282715,2.336193084716797
1752116324416148000,10.92814794921875,1.5949909687042236,-2.220118999481201,3.089824914932251
1752116324426002000,10.938001953125,1.0197980403900146,-1.27947998046875,2.672528028488159
1752116324435855600,10.947855712890625,0.3202509880065918,-0.47618600726127625,2.226897954940796
1752116324445709600,10.95770947265625,0.27718499302864075,0.36664000153541565,1.4470759630203247
1752116324455563300,10.967563232421876,-0.059957001358270645,0.9487860202789307,1.3515119552612305
1752116324465417000,10.9774169921875,0.01077600009739399,1.4646810293197632,1.3657219409942627
1752116324475270400,10.9872705078125,-0.2275490015745163,1.8817750215530396,1.1685839891433716
1752116324485124400,10.997124267578124,-0.7710350155830383,2.1878299713134766,1.275014042854309
1752116324494978000,11.00697802734375,-1.3992069959640503,2.249545097351074,1.1024119853973389
1752116324504831700,11.016831787109375,-1.396217942237854,2.280550003051758,0.527616024017334
1752116324514685400,11.026685546875,-1.135457992553711,2.0093719959259033,-0.0864500030875206
1752116324524539100,11.0365390625,-0.8395280241966248,1.8454840183258057,-0.2895030081272125
1752116324534392800,11.046392822265625,-0.8840370178222656,1.1172469854354858,0.21258899569511414
1752116324544246800,11.056246826171876,-0.3433229923248291,0.2762880027294159,0.08932500332593918
1752116324554100500,11.0661005859375,-0.6457509994506836,-0.8096550107002258,0.4952090084552765
1752116324563954200,11.0759541015625,-0.41369199752807617,-1.2756270170211792,0.10506200045347214
1752116324573807900,11.085807861328124,-0.8156219720840454,-1.4882960319519043,0.14544999599456787
1752116324583661600,11.09566162109375,0.016776999458670616,-1.3646559715270996,-0.48280298709869385
1752116324593515500,11.105515625,0.1786389946937561,-0.8088089823722839,-0.25503799319267273
1752116324603369000,11.115368896484375,0.6547300219535828,-0.01217500027269125,-0.46546098589897156
1752116324613223000,11.125222900390625,0.6818479895591736,0.09882400184869766,-0.24423199892044067
1752116324623076600,11.13507666015625,1.6633490324020386,-0.13354800641536713,-1.1459779739379883
1752116324632930300,11.144930419921875,1.4812699556350708,-0.5172460079193115,-1.3690110445022583
1752116324642784000,11.154783935546876,1.444282054901123,-0.7899690270423889,-1.5516890287399292
1752116324652637700,11.1646376953125,0.8442649841308594,-1.0628210306167603,-0.6475980281829834
1752116324662491400,11.174491455078124,1.5418180227279663,-1.2593270540237427,-0.5244619846343994
1752116324672345300,11.184345458984374,1.766232967376709,-1.348091959953308,-0.2178329974412918
1752116324682198800,11.19419873046875,1.1833410263061523,-1.3336470127105713,0.48858198523521423
1752116324692052700,11.204052734375,0.4553380012512207,-0.9516670107841492,1.0064079761505127
1752116324701906200,11.21390625,0.29354000091552734,-0.5908089876174927,0.9176639914512634
1752116324711760100,11.223760009765625,-0.15619300305843353,-0.4551270008087158,0.19652700424194336
1752116324721613800,11.23361376953125,-1.1203620433807373,-0.8209019899368286,0.09165500104427338
1752116324731467500,11.243467529296876,-1.7865899801254272,-1.0039279460906982,0.15776099264621735
1752116324741321200,11.2533212890625,-1.8504780530929565,-1.4687680006027222,-0.12273799628019333
1752116324751175200,11.263175048828124,-1.2764159440994263,-1.5060139894485474,-0.5525540113449097
1752116324761028600,11.273028564453124,-1.4931310415267944,-1.4257760047912598,-0.21985599398612976
1752116324770882600,11.282882568359375,-0.4511759877204895,-1.035810947418213,-0.23016799986362457
1752116324780736300,11.292736328125,-0.2658950090408325,-0.8633639812469482,0.4729749858379364
1752116324790590000,11.30258984375,0.9428600072860718,-0.5859529972076416,-0.36987099051475525
1752116324800443600,11.312443603515625,0.9740260243415833,-0.6811299920082092,-0.8532119989395142
1752116324810297300,11.32229736328125,1.5671329498291016,-0.6286910176277161,-2.4626030921936035
1752116324820151000,11.332151123046875,1.0870280265808105,-0.44898098707199097,-2.0607049465179443
1752116324830005000,11.3420048828125,0.6806470155715942,-0.6244660019874573,-1.6749869585037231
1752116324839858700,11.351858642578126,0.27567100524902344,-0.8299260139465332,-0.8269709944725037
1752116324849712400,11.36171240234375,-0.12426400184631348,-1.256885051727295,-0.3637929856777191
1752116324859566000,11.371566162109374,-0.012020000256597996,-1.188099980354309,-0.5511990189552307
1752116324869419800,11.381419677734375,-0.571520984172821,-1.2505300045013428,-0.11107899993658066
1752116324879273500,11.3912734375,-0.36774900555610657,-0.7849360108375549,-0.7143430113792419
1752116324889127200,11.401127197265625,-0.7103679776191711,-0.17141099274158478,-0.07141599804162979
1752116324898981000,11.410981201171875,-0.5120490193367004,0.6870369911193848,-0.300258994102478
1752116324908834800,11.420834716796875,-0.5133609771728516,0.8649020195007324,0.38584500551223755
1752116324918688500,11.4306884765625,0.3973419964313507,0.5866439938545227,-0.11812800168991089
1752116324928542200,11.440542236328126,1.0357359647750854,-0.025110000744462013,-0.17135000228881836
1752116324938396000,11.45039599609375,0.8932570219039917,-0.9333760142326355,-0.24640299379825592
1752116324948249600,11.46024951171875,0.9252539873123169,-1.3097230195999146,-0.43703699111938477
1752116324958103600,11.470103515625,0.5779410004615784,-1.8674050569534302,0.06988400220870972
1752116324967957000,11.47995703125,0.7236409783363342,-1.9343780279159546,-0.25554901361465454
1752116324977811000,11.48981103515625,0.27682000398635864,-1.5852899551391602,0.766635000705719
1752116324987664600,11.49966455078125,1.255506992340088,-0.566353976726532,0.4143359959125519
1752116324997518300,11.509518310546875,1.7551640272140503,0.6134009957313538,0.6585220098495483
1752116325007372000,11.5193720703125,1.4678059816360474,1.2801769971847534,0.15810999274253845
1752116325017225700,11.529225830078126,0.7245039939880371,1.3333430290222168,0.07449200004339218
1752116325027079700,11.53907958984375,0.5236639976501465,1.4255069494247437,-0.4260930120944977
1752116325036933400,11.548933349609374,-0.0988750010728836,1.612987995147705,-0.34693101048469543
1752116325046786800,11.558786865234374,-0.8689020276069641,1.3487249612808228,0.4041120111942291
1752116325056640800,11.568640869140625,-0.22118599712848663,1.018380045890808,0.3335550129413605
1752116325066494500,11.578494384765625,0.23796500265598297,0.6282730102539062,0.712228000164032
1752116325076348200,11.58834814453125,1.0752209424972534,0.39809998869895935,1.0484060049057007
1752116325086201900,11.598201904296875,1.0326290130615234,0.49529799818992615,0.9038180112838745
1752116325096055800,11.608055908203125,1.0163459777832031,0.40568000078201294,0.3185279965400696
1752116325105909200,11.6179091796875,0.6763089895248413,0.49005401134490967,-0.015432000160217285
1752116325115763000,11.627762939453126,-0.12745000422000885,0.25786298513412476,0.46772700548171997
1752116325125616600,11.63761669921875,-0.11121200025081635,-0.09811799973249435,-0.1884630024433136
1752116325135470600,11.647470703125,-0.23373499512672424,-0.15915800631046295,-0.22703999280929565
1752116325145324300,11.65732421875,-0.2919679880142212,0.13225500285625458,0.004856000188738108
1752116325155178000,11.667177978515625,-0.30101099610328674,0.6472269892692566,-0.032690998166799545
1752116325165031700,11.67703173828125,-0.3454340100288391,0.7541790008544922,0.4941529929637909
1752116325174885600,11.6868857421875,0.7636420130729675,0.9300450086593628,-0.1748490035533905
1752116325184739000,11.696739013671875,1.211277961730957,0.5959590077400208,0.32575899362564087
1752116325194593000,11.706593017578125,2.098858118057251,-0.15623299777507782,-0.5371189713478088
1752116325204446500,11.716446533203126,1.9691979885101318,-1.042083978652954,0.00056900002527982
1752116325214300400,11.726300537109376,1.3713239431381226,-1.4485390186309814,-0.10485800355672836
1752116325224153900,11.73615380859375,0.19656600058078766,-1.7114360332489014,0.32205599546432495
1752116325234007800,11.7460078125,-1.0637530088424683,-2.1917788982391357,0.3400219976902008
1752116325243861500,11.755861572265625,-1.8524630069732666,-2.3964650630950928,0.042507998645305634
1752116325253715500,11.765715576171875,-2.616089105606079,-2.2245891094207764,0.18181400001049042
1752116325263569000,11.77556884765625,-1.8010669946670532,-1.805873990058899,-0.9049590229988098
1752116325273422800,11.7854228515625,-0.7994179725646973,-1.1519540548324585,-1.5995479822158813
1752116325283276500,11.795276611328125,-0.5361719727516174,-0.9731259942054749,-1.0942809581756592
1752116325293130000,11.8051298828125,0.855426013469696,-0.6850889921188354,-1.8210959434509277
1752116325302984000,11.81498388671875,0.8079349994659424,-0.2983109951019287,-1.595541000366211
1752116325312837600,11.824837646484376,0.20364199578762054,-0.10953900218009949,-1.751412034034729
1752116325322691300,11.83469140625,-0.6669719815254211,0.09814099967479706,-1.842265009880066
1752116325332545000,11.844544921875,-1.7879489660263062,0.19906599819660187,-1.1864529848098755
1752116325342398700,11.854398681640625,-1.5508840084075928,0.3314819931983948,-1.3694130182266235
1752116325352252700,11.864252685546875,-2.060513973236084,-0.13119199872016907,-0.07689999788999557
1752116325362106000,11.874106201171875,-1.6932929754257202,-0.5428289771080017,-0.08252999931573868
1752116325371960000,11.8839599609375,-1.6046760082244873,-0.42278701066970825,0.3663780093193054
1752116325381813500,11.8938134765625,-1.6510649919509888,-0.39599600434303284,0.7609739899635315
1752116325391667500,11.90366748046875,-0.77497398853302,0.06132299825549126,-0.399399995803833
1752116325401521200,11.913521240234376,-0.7342979907989502,1.015434980392456,-0.4059770107269287
1752116325411374800,11.923374755859374,-0.7749800086021423,1.8249050378799438,-0.02728400006890297
1752116325421228500,11.933228515625,0.5080479979515076,2.247368097305298,-0.2574320137500763
1752116325431082500,11.94308251953125,0.4622029960155487,1.7729250192642212,0.6208699941635132
1752116325440936000,11.95293603515625,1.7236219644546509,1.4855109453201294,0.14216099679470062
1752116325450790000,11.962789794921875,2.3182458877563477,1.0372200012207031,0.6714040040969849
1752116325460643600,11.9726435546875,2.119044065475464,0.3167380094528198,0.5313990116119385
1752116325470497300,11.982497314453125,1.845744013786316,0.2045000046491623,0.31806400418281555
1752116325480351000,11.99235107421875,0.7398539781570435,0.40915098786354065,1.8307230472564697
1752116325490204700,12.00220458984375,0.5231819748878479,0.002652999944984913,1.7472519874572754
1752116325500058400,12.012058349609376,0.9286419749259949,-0.3149150013923645,1.4070580005645752
1752116325509912300,12.021912353515624,0.22014200687408447,-0.6880040168762207,1.9699440002441406
1752116325519766000,12.03176611328125,0.7118399739265442,-0.8799049854278564,-0.08847600221633911
1752116325529619700,12.04161962890625,0.020430000498890877,-0.6643919944763184,0.23490199446678162
1752116325539473700,12.0514736328125,-0.9186139702796936,-0.5336819887161255,0.11179099977016449
1752116325549327000,12.0613271484375,-0.31481999158859253,-0.4510459899902344,-1.1992889642715454
1752116325559180800,12.071180908203125,-0.9092640280723572,-0.7256389856338501,-0.5671229958534241
1752116325569034500,12.081034423828125,-0.2215760052204132,-0.2713660001754761,-0.8129010200500488
1752116325578888200,12.09088818359375,0.876662015914917,0.0659400001168251,-0.19757099449634552
1752116325588742000,12.100741943359376,0.7343170046806335,-0.542153000831604,0.27296900749206543
1752116325598595800,12.110595947265624,1.3990670442581177,-0.9673230051994324,-1.3702980279922485
1752116325608449500,12.120449462890624,0.3549639880657196,-0.9453740119934082,-0.932220995426178
1752116325618303200,12.13030322265625,-0.5982710123062134,-0.6425610184669495,-0.9356369972229004
1752116325628157000,12.140156982421875,-0.7171819806098938,-0.21921899914741516,-0.9629889726638794
1752116325638010600,12.1500107421875,-1.6351460218429565,0.18970300257205963,0.6981199979782104
1752116325647864300,12.1598642578125,-1.3682490587234497,0.019060000777244568,0.1492380052804947
1752116325657718000,12.169718017578125,0.43524399399757385,-0.05923299863934517,-0.6290119886398315
1752116325667572000,12.179572021484375,-0.34417301416397095,-0.2981700003147125,1.0622620582580566
1752116325677425700,12.18942578125,0.4346430003643036,-0.6410099864006042,-0.6772270202636719
1752116325687279400,12.199279296875,1.2578710317611694,-0.6801199913024902,-1.0037310123443604
1752116325697133300,12.20913330078125,0.10524599999189377,-0.8053100109100342,-0.47892799973487854
1752116325706986800,12.21898681640625,0.8203449845314026,-0.9508259892463684,-1.2230210304260254
1752116325716840400,12.22884033203125,0.19270700216293335,-0.6362119913101196,-0.13906599581241608
1752116325726694100,12.238694091796875,-1.4387459754943848,-0.13300000131130219,1.4326519966125488
1752116325736548000,12.248548095703125,-0.5876550078392029,0.35727599263191223,-0.3437750041484833
1752116325746401500,12.258401611328125,-1.7807040214538574,0.4370749890804291,0.686680018901825
1752116325756255500,12.26825537109375,-2.4410369396209717,0.30867600440979004,0.19596900045871735
1752116325766109000,12.27810888671875,-1.7088899612426758,0.7023450136184692,-0.93504798412323
1752116325775963000,12.287962890625,-1.486395001411438,0.700082004070282,-0.13510699570178986
1752116325785816600,12.297816650390626,-1.2495310306549072,0.2941499948501587,0.36243000626564026
1752116325795670300,12.307670166015624,1.2018159627914429,0.08737300336360931,-0.567101001739502
1752116325805524200,12.317524169921874,1.3614269495010376,-0.49941501021385193,0.48962900042533875
1752116325815378000,12.3273779296875,1.51016104221344,-1.0459519624710083,-0.12789000570774078
1752116325825231400,12.3372314453125,2.103287935256958,-0.9126539826393127,-0.9865339994430542
1752116325835085300,12.347085205078125,0.5167700052261353,-0.9916290044784546,-0.06124899908900261
1752116325844938800,12.356938720703125,0.06595800071954727,-0.8955119848251343,-0.7358559966087341
1752116325854792700,12.366792724609375,0.4941979944705963,-0.5113070011138916,-1.3396589756011963
1752116325864646400,12.376646484375,-0.43303200602531433,-0.6204140186309814,0.08731900155544281
1752116325874500000,12.3865,-0.15384399890899658,-0.1713860034942627,0.052267998456954956
1752116325884354000,12.39635400390625,1.1684800386428833,0.5315600037574768,-0.5541710257530212
1752116325894207700,12.406207763671874,1.0940899848937988,0.5034980177879333,0.024119000881910324
1752116325904061400,12.4160615234375,0.6267309784889221,0.05654500052332878,-0.18522199988365173
1752116325923768800,12.435768798828125,0.6478340029716492,-0.8646559715270996,0.12795600295066833
1752116325933622500,12.44562255859375,0.38037800788879395,-1.4988529682159424,-0.7030789852142334
1752116325943476200,12.455476318359375,0.6290240287780762,-1.2722669839859009,-0.8478509783744812
