time,seconds_elapsed,z,y,x
1752116313547550700,0.05955078125,0.1868624985218048,-1.375825047492981,0.3232625126838684
1752116313557404200,0.069404052734375,0.3348124921321869,-1.4566749334335327,0.47437500953674316
1752116313567257900,0.0792578125,0.45925000309944153,-1.6567374467849731,0.5498625040054321
1752116313577083000,0.089082763671875,0.524150013923645,-1.9995249509811401,0.5520625114440918
1752116313586964700,0.09896484375,0.4890874922275543,-2.370912551879883,0.4977499842643738
1752116313596818400,0.108818359375,0.3592875003814697,-2.685925006866455,0.4349125027656555
1752116313606672100,0.118672119140625,0.21230000257492065,-2.9061999320983887,0.3998500108718872
1752116313616525300,0.128525390625,0.04743750020861626,-2.82631254196167,0.444537490606308
1752116313626379000,0.13837890625,-0.10793749988079071,-2.352762460708618,0.5893250107765198
1752116313636232400,0.148232421875,-0.18246249854564667,-1.4759249687194824,0.6467999815940857
1752116313646086000,0.1580859375,-0.09624999761581421,-0.28929999470710754,0.49994999170303345
1752116313655939600,0.167939697265625,0.20707499980926514,0.9728124737739563,0.17847499251365662
1752116313665793000,0.17779296875,0.8200500011444092,2.1679625511169434,-0.20679999887943268
1752116313675646500,0.187646484375,1.565024971961975,3.263012409210205,-0.5674625039100647
1752116313685500400,0.19750048828125,2.1257500648498535,4.28573751449585,-0.908050000667572
1752116313695353900,0.207353759765625,2.404599905014038,4.5603251457214355,-1.021899938583374
1752116313705207300,0.217207275390625,2.53659987449646,3.6610748767852783,-0.8718875050544739
1752116313715061000,0.22706103515625,2.5909125804901123,2.2030251026153564,-0.46639999747276306
1752116313724914400,0.23691455078125,2.6239125728607178,0.5131499767303467,0.11783749610185623
1752116313734768000,0.24676806640625,2.6461875438690186,-1.006637454032898,0.75638747215271
1752116313744621600,0.25662158203125,2.6324374675750732,-1.5866124629974365,1.286312460899353
1752116313754475300,0.266475341796875,2.546225070953369,-0.605412483215332,1.5258375406265259
1752116313764328700,0.27632861328125,2.3749001026153564,1.2878249883651733,1.547012448310852
1752116313774182100,0.28618212890625,2.1917500495910645,2.2764499187469482,1.4396250247955322
1752116313803740200,0.315740234375,0.8658375144004822,1.6007750034332275,0.5574250221252441
1752116313813593000,0.325593017578125,0.4347749948501587,1.7624750137329102,0.06888750195503235
1752116313823447000,0.335447021484375,-0.006874999962747097,2.478712558746338,-0.3291749954223633
1752116313833300700,0.34530078125,-0.39531248807907104,2.8608250617980957,-0.6803500056266785
1752116313843154400,0.355154541015625,-0.6591749787330627,2.9798998832702637,-1.0326249599456787
1752116313853008000,0.3650078125,-0.7581750154495239,3.0523624420166016,-1.3593250513076782
1752116313862861300,0.374861328125,-0.6730625033378601,3.178999900817871,-1.6700749397277832
1752116313872715000,0.384715087890625,-0.478362500667572,3.272637367248535,-2.014787435531616
1752116313882568700,0.394568603515625,-0.3558500111103058,3.412062406539917,-2.4096875190734863
1752116313892422100,0.404422119140625,-0.5399624705314636,3.4493250846862793,-2.709712505340576
1752116313902275800,0.41427587890625,-0.9869750142097473,2.248812437057495,-2.3574373722076416
1752116313912129300,0.42412939453125,-1.5254249572753906,1.0228625535964966,-1.7199875116348267
1752116313921983000,0.43398291015625,-1.8096375465393066,0.2662000060081482,-0.9794124960899353
1752116313931836400,0.44383642578125,-1.7510625123977661,0.15441249310970306,-0.25575000047683716
1752116313941689900,0.45368994140625,-1.5180000066757202,0.3353624939918518,0.39022499322891235
1752116313951543600,0.46354345703125,-1.2764124870300293,0.5226374864578247,0.9277125000953674
1752116313961397000,0.47339697265625,-1.0763499736785889,0.6930000185966492,1.3459874391555786
1752116313971250700,0.483250732421875,-0.9157499670982361,0.8908625245094299,1.6013250350952148
1752116313981104000,0.493104248046875,-0.84232497215271,1.0100749731063843,1.732224941253662
1752116313990957600,0.50295751953125,-0.8178499937057495,1.020799994468689,1.7694875001907349
1752116314000811300,0.512811279296875,-0.7837499976158142,0.9249625205993652,1.6854749917984009
1752116314010665000,0.5226650390625,-0.7134875059127808,0.7291625142097473,1.4970999956130981
1752116314020518400,0.532518310546875,-0.6230124831199646,0.4534749984741211,1.2330999374389648
1752116314030372000,0.5423720703125,-0.49101248383522034,0.2917749881744385,0.8893499970436096
1752116314040225500,0.5522255859375,-0.3676750063896179,0.15125000476837158,0.5296499729156494
1752116314050079000,0.562078857421875,-0.25905001163482666,0.005499999970197678,0.17215000092983246
1752116314059932700,0.5719326171875,-0.14093749225139618,-0.04455000162124634,-0.14176249504089355
1752116314069786000,0.5817861328125,-0.02914999984204769,-0.030662499368190765,-0.3546124994754791
1752116314079639800,0.591639892578125,0.052799999713897705,0.029975000768899918,-0.4558124840259552
1752116314089493200,0.6014931640625,0.11550000309944153,0.028875000774860382,-0.4493499994277954
1752116314099347000,0.611346923828125,0.08676250278949738,-0.10312499850988388,-0.3429250121116638
1752116314109200600,0.62120068359375,0.060224998742341995,-0.22866250574588776,-0.1704999953508377
1752116314119054000,0.63105419921875,0.07727500051259995,-0.09776250272989273,0.0518375001847744
1752116314128907800,0.64090771484375,0.10917499661445618,0.16403749585151672,0.3232625126838684
1752116314138761200,0.65076123046875,0.11769999563694,0.30346250534057617,0.5722749829292297
1752116314148615000,0.660614990234375,0.0952875018119812,0.4684624969959259,0.7244874835014343
1752116314158468400,0.67046826171875,0.06655000150203705,0.527999997138977,0.7297124862670898
1752116314168322000,0.680322021484375,0.037812501192092896,0.44288748502731323,0.5785999894142151
1752116314178175500,0.690175537109375,-0.01966249942779541,0.2917749881744385,0.34031251072883606
1752116314188029000,0.70002880859375,-0.07603749632835388,0.2853125035762787,0.13695000112056732
1752116314197882600,0.709882568359375,-0.13241249322891235,0.2545124888420105,0.06778749823570251
1752116314207736300,0.719736328125,-0.1676124930381775,0.18535000085830688,0.10724999755620956
1752116314217589800,0.72958984375,-0.14409999549388885,0.2428250014781952,0.1891999989748001
1752116314227443500,0.739443359375,-0.1313125044107437,0.22893749177455902,0.27211248874664307
1752116314237297000,0.749296875,-0.11756250262260437,0.14066250622272491,0.3158375024795532
1752116314247150600,0.759150634765625,-0.03135000169277191,0.113987497985363,0.32752498984336853
1752116314257004000,0.769004150390625,0.07727500051259995,0.12581250071525574,0.3636874854564667
1752116314266857700,0.778857666015625,0.11976250261068344,0.25987499952316284,0.4499000012874603
1752116314276711200,0.788711181640625,0.14423750340938568,0.3844499886035919,0.5381749868392944
1752116314286564600,0.798564697265625,0.15702499449253082,0.5418875217437744,0.6243875026702881
1752116314296418300,0.808418212890625,0.10271249711513519,0.5440874695777893,0.6351125240325928
1752116314306272000,0.81827197265625,-0.01966249942779541,0.295074999332428,0.5201625227928162
1752116314316125700,0.828125732421875,-0.14726249873638153,-0.1381874978542328,0.3051125109195709
1752116314325979100,0.837979248046875,-0.2686749994754791,-0.550000011920929,0.11247500032186508
1752116314335832600,0.84783251953125,-0.35804998874664307,-0.6681125164031982,0.023099999874830246
1752116314345686300,0.857686279296875,-0.3133625090122223,-0.5372124910354614,0.0635249987244606
1752116314355539700,0.867539794921875,-0.15908749401569366,-0.35089999437332153,0.16568750143051147
1752116314365393400,0.877393310546875,0.005912499967962503,-0.2626250088214874,0.24021250009536743
1752116314375246800,0.887246826171875,0.07617499679327011,-0.3137750029563904,0.24131250381469727
1752116314385100500,0.8971005859375,0.002749999985098839,-0.4595249891281128,0.21683749556541443
1752116314394954200,0.906954345703125,-0.15578749775886536,-0.5702124834060669,0.16142499446868896
1752116314404807700,0.9168076171875,-0.30373749136924744,-0.5531625151634216,0.0668250024318695
1752116314414661400,0.926661376953125,-0.4292750060558319,-0.42336249351501465,-0.06833750009536743
1752116314424514800,0.936514892578125,-0.4815250039100647,-0.30621248483657837,-0.2578125
1752116314434368500,0.946368408203125,-0.4016374945640564,-0.2125750035047531,-0.43230000138282776
1752116314444222000,0.956221923828125,-0.20803749561309814,-0.06366249918937683,-0.45471251010894775
1752116314454075600,0.96607568359375,-0.04413750022649765,0.040699999779462814,-0.3258749842643738
1752116314463929000,0.97592919921875,-0.060087498277425766,0.029975000768899918,-0.09281250089406967
1752116314473782800,0.98578271484375,-0.1845249980688095,0.042762499302625656,0.08799999952316284
1752116314483636500,0.995636474609375,-0.28146249055862427,0.029012499377131462,0.17847499251365662
1752116314493490000,1.005489990234375,-0.3250499963760376,0.09391249716281891,0.19442500174045563
1752116314503343600,1.015343505859375,-0.3059374988079071,0.1662375032901764,0.14973749220371246
1752116314513197000,1.025197021484375,-0.23883749544620514,0.20350000262260437,0.07961250096559525
1752116314523050500,1.035050537109375,-0.16224999725818634,0.19923749566078186,0.021037500351667404
1752116314532904200,1.044904296875,-0.1313125044107437,0.18438750505447388,-0.02681249938905239
1752116314542758000,1.0547578125,-0.15482500195503235,0.11728750169277191,-0.05348749831318855
1752116314552611600,1.064611572265625,-0.20473749935626984,0.027912499383091927,-0.082225002348423
1752116314562465000,1.074465087890625,-0.22824999690055847,-0.060499999672174454,-0.12484999746084213
1752116314572318500,1.084318359375,-0.18878750503063202,-0.1615625023841858,-0.1821874976158142
1752116314582172200,1.094172119140625,-0.14630000293254852,-0.23704999685287476,-0.18548749387264252
1752116314592025900,1.10402587890625,-0.1611499935388565,-0.29026249051094055,-0.1280124932527542
1752116314601879300,1.11387939453125,-0.24310000240802765,-0.3306874930858612,-0.025849999859929085
1752116314611733000,1.12373291015625,-0.3324750065803528,-0.3190000057220459,0.08057499676942825
1752116314621586400,1.13358642578125,-0.3793624937534332,-0.32120001316070557,0.1859000027179718
1752116314631440100,1.143440185546875,-0.3793624937534332,-0.37331250309944153,0.24873749911785126
1752116314641293600,1.15329345703125,-0.3515875041484833,-0.3764750063419342,0.23498749732971191
1752116314651147300,1.163147216796875,-0.2866874933242798,-0.3764750063419342,0.1966249942779541
1752116314661001000,1.1730009765625,-0.16651250422000885,-0.3647874891757965,0.12209999561309814
1752116314670854400,1.1828544921875,-0.06861250102519989,-0.3190000057220459,0.040150001645088196
1752116314700420600,1.212420654296875,-0.02914999984204769,-0.24461250007152557,-0.0034374999813735485
1752116314710271500,1.222271484375,-0.09624999761581421,-0.2774749994277954,0.06998749822378159
1752116314720125000,1.232125,-0.20803749561309814,-0.3796375095844269,0.15729999542236328
1752116314729978600,1.241978515625,-0.35062500834465027,-0.595787525177002,0.22426250576972961
1752116314739832300,1.251832275390625,-0.49004998803138733,-0.9521874785423279,0.26358750462532043
1752116314749686000,1.26168603515625,-0.6155874729156494,-1.375825047492981,0.27211248874664307
1752116314759539500,1.27153955078125,-0.6975374817848206,-1.6610000133514404,0.2583625018596649
1752116314769393000,1.281392822265625,-0.7038624882698059,-1.7577999830245972,0.21793749928474426
1752116314779246600,1.29124658203125,-0.6506500244140625,-2.183500051498413,0.15399999916553497
1752116314789100000,1.30110009765625,-0.6039000153541565,-2.6932125091552734,0.03904999792575836
1752116314798954000,1.3109541015625,-0.5720000267028809,-2.4228875637054443,-0.1428624987602234
1752116314808807400,1.320807373046875,-0.6793875098228455,-2.2026124000549316,-0.28008750081062317
1752116314818660900,1.330660888671875,-0.8241750001907349,-2.247299909591675,-0.31212499737739563
1752116314828514600,1.3405146484375,-0.9337624907493591,-2.534674882888794,-0.31308749318122864
1752116314838368000,1.350367919921875,-1.0518749952316284,-3.0007998943328857,-0.303600013256073
1752116314848221700,1.3602216796875,-1.1881375312805176,-3.600987434387207,-0.2928749918937683
1752116314858075400,1.370075439453125,-1.3286625146865845,-4.457749843597412,-0.2578125
1752116314867928800,1.3799287109375,-1.462725043296814,-5.073887348175049,-0.11948750168085098
1752116314877782500,1.389782470703125,-1.6383124589920044,-4.98877477645874,0.04235000163316727
1752116314887636000,1.399635986328125,-1.8352124691009521,-5.0929999351501465,0.06462500244379044
1752116314897489700,1.40948974609375,-2.017124891281128,-5.465487480163574,-0.09707500040531158
1752116314907343000,1.419343017578125,-2.19064998626709,-5.78366231918335,-0.4248749911785126
1752116314917197000,1.429197021484375,-2.262974977493286,-6.150925159454346,-0.9900000095367432
1752116314927050500,1.439050537109375,-2.132075071334839,-5.815700054168701,-1.8264124393463135
1752116314936904200,1.448904296875,-1.8202250003814697,-3.9287874698638916,-2.905512571334839
1752116314946758000,1.4587578125,-1.4488375186920166,-3.3072874546051025,-3.7537500858306885
1752116314956611300,1.468611328125,-1.103987455368042,-4.553450107574463,-4.169825077056885
1752116314966465000,1.478465087890625,-0.6890124678611755,-5.336787700653076,-4.538050174713135
1752116314976318500,1.488318359375,-0.3591499924659729,-4.48648738861084,-5.109499931335449
1752116314986172200,1.498172119140625,0.09748750180006027,-4.680087566375732,-5.293612480163574
1752116314996025600,1.508025634765625,0.6635749936103821,-5.1621623039245605,-5.2925124168396
1752116315005879600,1.517879638671875,1.2181124687194824,-5.672975063323975,-5.3160247802734375
1752116315015733000,1.52773291015625,1.7267249822616577,-5.428225040435791,-5.451187610626221
1752116315025586200,1.537586181640625,2.21732497215271,-4.876987457275391,-5.443624973297119
1752116315035440000,1.547440185546875,2.6333999633789062,-4.198012351989746,-5.037175178527832
1752116315045293600,1.55729345703125,2.7590749263763428,-2.2622873783111572,-4.068762302398682
1752116315055147300,1.567147216796875,2.5898125171661377,0.267300009727478,-2.341487407684326
1752116315065001000,1.5770009765625,2.4238500595092773,1.691249966621399,-1.030424952507019
1752116315074854700,1.586854736328125,2.25142502784729,2.4298999309539795,-0.8218374848365784
1752116315084708000,1.5967080078125,1.9597874879837036,2.4618000984191895,-1.3677124977111816
1752116315104415200,1.616415283203125,0.8083624839782715,0.5238749980926514,-2.699125051498413
1752116315114268700,1.6262685546875,0.07081250101327896,-0.5424374938011169,-2.957624912261963
1752116315124122600,1.63612255859375,-0.5931749939918518,-0.7096375226974487,-3.0556623935699463
1752116315133976000,1.64597607421875,-1.0678249597549438,-0.5435374975204468,-3.0875625610351562
1752116315143829800,1.655829833984375,-1.288100004196167,0.16513749957084656,-2.984299898147583
1752116315153683200,1.66568310546875,-1.3327875137329102,1.1761749982833862,-2.8278250694274902
1752116315163536600,1.67553662109375,-1.296625018119812,1.3369125127792358,-2.9906249046325684
1752116315173390300,1.685390380859375,-1.0518749952316284,0.5418875217437744,-3.2609500885009766
1752116315183244000,1.695244140625,-0.5751624703407288,-0.6892874836921692,-3.3684749603271484
1752116315193097700,1.70509765625,0.05596249923110008,-1.4577749967575073,-3.1428375244140625
1752116315202951200,1.714951171875,0.6572499871253967,-2.2068750858306885,-2.2702624797821045
1752116315212804600,1.7248046875,0.9541124701499939,-3.2168123722076416,-0.5387250185012817
1752116315222658300,1.734658203125,0.9541124701499939,-2.6390373706817627,-0.14918750524520874
1752116315232512000,1.744511962890625,0.8243125081062317,-2.406937599182129,-0.7643625140190125
1752116315252219100,1.76421923828125,0.32202500104904175,-1.7492749691009521,-1.5827624797821045
1752116315262072800,1.77407275390625,-0.17820000648498535,-0.6744375228881836,-1.365649938583374
1752116315271926500,1.783926513671875,-0.5293750166893005,0.04496249929070473,-1.232550024986267
1752116315281780000,1.793780029296875,-0.6059625148773193,0.318450003862381,-1.2623875141143799
1752116315291633700,1.803633544921875,-0.5846499800682068,0.5515124797821045,-1.231587529182434
1752116315301487000,1.813487060546875,-0.5282750129699707,0.8229374885559082,-1.1101750135421753
1752116315311340800,1.8233408203125,-0.4292750060558319,0.890999972820282,-0.9772124886512756
1752116315321194500,1.833194580078125,-0.39214998483657837,0.6291999816894531,-1.0324875116348267
1752116315331048000,1.8430478515625,-0.44536250829696655,0.40466248989105225,-1.3326499462127686
1752116315340901600,1.852901611328125,-0.5240125060081482,0.5461499691009521,-1.7381374835968018
1752116315350755000,1.862755126953125,-0.5484874844551086,0.9006249904632568,-2.1234123706817627
1752116315360608800,1.87260888671875,-0.5187875032424927,1.0719499588012695,-2.3159124851226807
1752116315370462200,1.882462158203125,-0.4665375053882599,1.1283249855041504,-2.189275026321411
1752116315380316200,1.892316162109375,-0.45801249146461487,1.0730500221252441,-1.7945125102996826
1752116315390169600,1.902169677734375,-0.4101625084877014,0.7739874720573425,-1.4965499639511108
1752116315400023300,1.912023193359375,-0.3293125033378601,0.5227749943733215,-1.2751749753952026
1752116315409877000,1.921876953125,-0.40700000524520874,0.3386625051498413,-1.1325875520706177
1752116315419730400,1.93173046875,-0.6133875250816345,0.27912500500679016,-1.020799994468689
1752116315429584100,1.941584228515625,-0.8390250205993652,0.21848750114440918,-0.9442124962806702
1752116315439437600,1.9514375,-1.1360249519348145,-0.0017874999903142452,-0.9792749881744385
1752116315449291500,1.96129150390625,-1.1412500143051147,-0.06778749823570251,-1.046375036239624
1752116315459145000,1.97114501953125,-0.7826499938964844,0.43230000138282776,-1.0719499588012695
1752116315468998700,1.98099853515625,-0.6560124754905701,0.6610999703407288,-0.49197500944137573
1752116315478852000,1.99085205078125,-0.9624999761581421,0.5036625266075134,-0.19497500360012054
1752116315488705500,2.00070556640625,-1.0476125478744507,0.5025625228881836,-0.007699999958276749
1752116315498559200,2.010559326171875,-0.906125009059906,0.34402498602867126,0.1742125004529953
1752116315508413000,2.020412841796875,-0.7155500054359436,0.022687500342726707,0.29672500491142273
1752116315518266600,2.0302666015625,-0.591112494468689,-0.030524998903274536,0.4595249891281128
1752116315537973500,2.049973388671875,-0.40383750200271606,-0.0859375,0.6861249804496765
1752116315547827500,2.059827392578125,-0.39311251044273376,0.2844874858856201,0.7691749930381775
1752116315557681000,2.069680908203125,-0.4867500066757202,0.8474124670028687,0.6914874911308289
1752116315567534600,2.07953466796875,-0.7006999850273132,1.5423375368118286,0.5424374938011169
1752116315577388300,2.08938818359375,-0.8794500231742859,2.063737392425537,0.37111249566078186
1752116315587241700,2.09924169921875,-0.8911374807357788,1.8775625228881836,0.2934249937534332
1752116315597095400,2.109095458984375,-0.6539499759674072,1.1996874809265137,0.36588749289512634
1752116315606948900,2.118948974609375,-0.31226250529289246,0.5302000045776367,0.4712125062942505
1752116315616802600,2.128802490234375,-0.29315000772476196,0.3258749842643738,0.6584874987602234
1752116315626656300,2.13865625,-0.4166249930858612,0.4291374981403351,0.764912486076355
1752116315636510000,2.148510009765625,-0.6421250104904175,0.7452499866485596,0.7233874797821045
1752116315646363400,2.15836328125,-0.7561125159263611,0.7888374924659729,0.5255249738693237
1752116315656217000,2.168217041015625,-0.6007375121116638,0.7048249840736389,0.3073124885559082
1752116315666070500,2.178070556640625,-0.4123624861240387,0.7526749968528748,0.13488750159740448
1752116315675924200,2.18792431640625,-0.3899500072002411,1.0634249448776245,-0.023649999871850014
1752116315685778000,2.19777783203125,-0.4218499958515167,1.3252249956130981,-0.23017500340938568
1752116315695631400,2.20763134765625,-0.6048625111579895,1.4125374555587769,-0.22261250019073486
1752116315705485300,2.2174853515625,-0.99013751745224,1.3613874912261963,-0.020487500354647636
1752116315715338800,2.2273388671875,-1.723425030708313,1.4146000146865845,0.1849374920129776
1752116315725192400,2.2371923828125,-2.3555123805999756,1.399749994277954,0.2040500044822693
1752116315735046000,2.2470458984375,-1.7617875337600708,1.8998374938964844,-0.05664999783039093
1752116315744899300,2.2568994140625,-0.8922374844551086,0.7590000033378601,-0.23649999499320984
1752116315754753300,2.266753173828125,-0.9209749698638916,0.5429875254631042,-0.05238749831914902
1752116315764606700,2.276606689453125,-1.230625033378601,0.4930749833583832,-0.295074999332428
1752116315774460700,2.286460693359375,-1.0848749876022339,0.26001250743865967,-0.7154124975204468
1752116315784314000,2.296314208984375,-0.27073749899864197,-0.47327500581741333,-0.7845749855041504
1752116315794167800,2.306167724609375,0.9307374954223633,-1.3906749486923218,-0.5153499841690063
1752116315804021200,2.316021240234375,1.864087462425232,-2.1505000591278076,0.07218749821186066
1752116315813875000,2.325875,2.1449999809265137,-2.5782625675201416,0.7298499941825867
1752116315823728600,2.335728759765625,2.3758625984191895,-2.7825875282287598,1.006500005722046
1752116315833582000,2.34558203125,2.6207499504089355,-2.3622500896453857,1.1160874366760254
1752116315843435800,2.355435791015625,2.845287561416626,-1.7258999347686768,1.0617749691009521
1752116315853289500,2.36528955078125,2.679187536239624,-0.8042374849319458,1.0267125368118286
1752116315863143000,2.375142822265625,2.234375,-0.15716250240802765,0.9373375177383423
1752116315872996600,2.38499658203125,1.7841999530792236,-0.08057499676942825,0.7244874835014343
1752116315882850300,2.394850341796875,1.71503746509552,-0.1849374920129776,0.6564249992370605
1752116315892703700,2.404703857421875,1.9023125171661377,-0.5455999970436096,0.7606499791145325
1752116315902557400,2.414557373046875,2.111999988555908,-1.0458250045776367,0.7979124784469604
1752116315912411100,2.4244111328125,2.157787561416626,-1.294837474822998,0.819225013256073
1752116315922264600,2.4342646484375,2.1800625324249268,-1.0267125368118286,0.7999749779701233
1752116315932118300,2.4441181640625,2.266274929046631,-0.6115999817848206,0.8277499675750732
1752116315941972000,2.453971923828125,1.9800000190734863,-0.30937498807907104,0.44247499108314514
1752116315951825400,2.463825439453125,1.4851374626159668,0.05238749831914902,0.25946250557899475
1752116315961679400,2.473679443359375,1.2574374675750732,0.27912500500679016,0.2700499892234802
1752116315971532800,2.48353271484375,1.177549958229065,0.36313748359680176,0.42006251215934753
1752116315981386500,2.493386474609375,1.102062463760376,0.4450874924659729,0.6670125126838684
1752116315991240000,2.503239990234375,0.8977375030517578,0.555774986743927,0.7925499677658081
1752116316001093600,2.51309375,0.6732000112533569,0.8548374772071838,0.8733999729156494
1752116316010947000,2.522947021484375,0.5391374826431274,1.25496244430542,0.9117624759674072
1752116316020801000,2.532801025390625,0.4529249966144562,1.547700047492981,0.9096999764442444
1752116316030654500,2.542654541015625,0.39861249923706055,1.6306124925613403,0.9755625128746033
1752116316040508200,2.552508056640625,0.39118748903274536,1.5115374326705933,0.987387478351593
1752116316050361600,2.562361572265625,0.25286251306533813,0.7697250247001648,0.7628499865531921
1752116316060215300,2.57221533203125,0.07617499679327011,0.3067624866962433,0.6488624811172485
1752116316070069000,2.582069091796875,-0.10587500035762787,0.19717499613761902,0.5744749903678894
1752116316079922400,2.59192236328125,-0.26124998927116394,0.4675000011920929,0.28600001335144043
1752116316089776400,2.6017763671875,-0.3760625123977661,0.7165125012397766,0.06462500244379044
1752116316099629800,2.6116298828125,-0.48358750343322754,0.9112125039100647,0.08387500047683716
1752116316109483500,2.6214833984375,-0.5091624855995178,0.8516749739646912,0.18700000643730164
1752116316119337200,2.631337158203125,-0.508062481880188,1.0176374912261963,0.16472500562667847
1752116316129191000,2.64119091796875,-0.5464249849319458,1.27201247215271,0.03272499889135361
1752116316139044400,2.65104443359375,-0.5644375085830688,1.3007500171661377,-0.09927500039339066
1752116316148898000,2.66089794921875,-0.469837486743927,1.1357499361038208,-0.12581250071525574
1752116316158751700,2.670751708984375,-0.3825249969959259,0.8878374695777893,-0.050324998795986176
1752116316168605200,2.680605224609375,-0.31652501225471497,0.630299985408783,0.0742499977350235
1752116316178459000,2.690458984375,-0.33563750982284546,0.5207124948501587,0.12856249511241913
1752116316188312600,2.7003125,-0.4655750095844269,0.5153499841690063,0.16898749768733978
1752116316198166300,2.710166259765625,-0.6241124868392944,0.6738874912261963,0.1050499975681305
1752116316208019700,2.720019775390625,-0.776324987411499,0.6973999738693237,-0.022549999877810478
1752116316217873400,2.729873291015625,-0.7826499938964844,0.6260374784469604,-0.06943749636411667
1752116316227727000,2.73972705078125,-0.6921749711036682,0.4483875036239624,-0.06943749636411667
1752116316237580800,2.749580810546875,-0.6389625072479248,0.3493874967098236,-0.042762499302625656
1752116316247434200,2.759434326171875,-0.675125002861023,0.340862512588501,0.047575000673532486
1752116316257288000,2.769287841796875,-0.6964374780654907,0.28228750824928284,0.12430000305175781
1752116316267141600,2.7791416015625,-0.6804875135421753,0.18975000083446503,0.12319999933242798
1752116316276995600,2.78899560546875,-0.6241124868392944,0.06627500057220459,0.18067499995231628
1752116316286849000,2.79884912109375,-0.5432624816894531,0.006737499963492155,0.3030500113964081
1752116316296702500,2.808702392578125,-0.3750999867916107,-0.05389999970793724,0.3531000018119812
1752116316306556200,2.81855615234375,-0.16431249678134918,-0.16885000467300415,0.43821248412132263
1752116316316409600,2.82840966796875,0.09102500230073929,-0.1518000066280365,0.5787374973297119
1752116316326263600,2.838263671875,0.3123999834060669,-0.16458749771118164,0.6243875026702881
1752116316336117000,2.848116943359375,0.682824969291687,-0.12209999561309814,0.5552250146865845
1752116316345970700,2.857970703125,1.352174997329712,-0.03162499889731407,0.39352500438690186
1752116316355824000,2.86782421875,2.3333749771118164,-0.11783749610185623,0.37331250309944153
1752116316365677800,2.877677734375,3.2869374752044678,-0.8350374698638916,0.6297500133514404
1752116316375531800,2.88753173828125,3.92864990234375,-1.8193999528884888,0.6137999892234802
1752116316385385200,2.89738525390625,4.6321001052856445,-1.8609249591827393,0.5733749866485596
1752116316395239000,2.907239013671875,5.109912395477295,-1.6630624532699585,0.40411248803138733
1752116316405092400,2.91709228515625,3.806274890899658,-0.5498625040054321,-0.35887500643730164
1752116316414945800,2.92694580078125,2.4791250228881836,0.14190000295639038,-0.610087513923645
1752116316424799700,2.9367998046875,2.7186501026153564,0.28558748960494995,-0.5003625154495239
1752116316434653200,2.946653076171875,3.3411123752593994,-0.6360750198364258,-0.40246251225471497
1752116316444507000,2.9565068359375,3.9648125171661377,-1.8737125396728516,-0.24928750097751617
1752116316454360600,2.966360595703125,3.793487548828125,-2.851749897003174,-0.3568125069141388
1752116316464214300,2.97621435546875,2.7856125831604004,-2.8773250579833984,-1.1261249780654907
1752116316474067700,2.986067626953125,1.2670625448226929,-2.316462516784668,-1.315600037574768
1752116316483921700,2.995921630859375,0.3772999942302704,-0.7265499830245972,-1.0154374837875366
1752116316493775000,3.005775146484375,0.3326124846935272,-0.10395000129938126,-0.5856124758720398
1752116316503628800,3.01562890625,0.2901250123977661,-0.11247500032186508,-0.31418749690055847
1752116316513482500,3.025482421875,0.16238750517368317,-0.09542500227689743,-0.28654998540878296
1752116316523336000,3.0353359375,0.013337500393390656,-0.006049999967217445,-0.14066250622272491
1752116316533189600,3.045189697265625,-0.34636250138282776,0.21422499418258667,0.25093749165534973
1752116316543043300,3.055043212890625,-0.9561749696731567,0.5292375087738037,0.6499624848365784
1752116316552897000,3.06489697265625,-1.6031124591827393,0.8559374809265137,1.1054999828338623
1752116316562750500,3.07475048828125,-1.873437523841858,1.2816375494003296,1.442787528038025
1752116316572604400,3.0846044921875,-1.8276499509811401,1.5817999839782715,1.487475037574768
1752116316582457900,3.094457763671875,-1.734012484550476,1.4976500272750854,1.3832499980926514
1752116316592311600,3.1043115234375,-1.613837480545044,0.9187750220298767,1.3001999855041504
1752116316602165000,3.1141650390625,-1.5999499559402466,0.3078624904155731,1.227874994277954
1752116316612018700,3.124018798828125,-2.1608123779296875,0.16637499630451202,1.2544125318527222
1752116316621872400,3.133872314453125,-3.120699882507324,0.6048625111579895,1.3363624811172485
1752116316631726000,3.14372607421875,-3.657087564468384,0.915612518787384,1.5492124557495117
1752116316641579800,3.153579833984375,-3.476137399673462,0.8388875126838684,1.4097875356674194
1752116316651433700,3.163433837890625,-2.71521258354187,0.4025999903678894,1.3001999855041504
1752116316661287200,3.173287109375,-2.819575071334839,0.33233749866485596,1.5343624353408813
1752116316671140900,3.183140869140625,-5.041574954986572,1.732912540435791,1.8386499881744385
1752116316680994300,3.192994384765625,-2.9249000549316406,1.8510249853134155,1.1012375354766846
1752116316690848000,3.202847900390625,-1.2434124946594238,0.6729249954223633,1.2044999599456787
1752116316700701700,3.21270166015625,0.2358125001192093,0.19827499985694885,1.4950374364852905
1752116316710555100,3.22255517578125,0.933899998664856,1.0092500448226929,1.2469874620437622
1752116316720408800,3.232408935546875,1.1404249668121338,1.3050124645233154,1.0586124658584595
1752116316730262500,3.242262451171875,1.5457749366760254,1.2347500324249268,0.9512249827384949
1752116316740116200,3.2521162109375,1.8672499656677246,1.2731125354766846,0.8138625025749207
1752116316749969700,3.2619697265625,2.0971500873565674,1.0975250005722046,0.8095999956130981
1752116316759823400,3.2718232421875,2.1375749111175537,0.7847124934196472,0.7213249802589417
1752116316769677000,3.281677001953125,2.0832624435424805,0.5963374972343445,0.6488624811172485
1752116316779530800,3.29153076171875,1.880037546157837,0.6048625111579895,0.5819000005722046
1752116316789384400,3.301384521484375,1.7863999605178833,0.6665999889373779,0.38609999418258667
1752116316799238000,3.31123779296875,1.8598250150680542,0.46970000863075256,0.19030000269412994
1752116316809091800,3.321091796875,2.237537384033203,0.1685750037431717,0.12636250257492065
1752116316818945300,3.3309453125,2.015199899673462,-0.3381125032901764,0.12856249511241913
1752116316828799000,3.340799072265625,1.1244750022888184,-0.43174999952316284,0.30951249599456787
1752116316838652700,3.350652587890625,0.36877501010894775,-0.408237487077713,0.32120001316070557
1752116316848506000,3.360506103515625,0.13048750162124634,-0.6253499984741211,0.2615250051021576
1752116316858359800,3.37035986328125,-0.11110000312328339,-0.792412519454956,0.24557499587535858
1752116316868213200,3.380213134765625,-0.32394999265670776,-0.3338499963283539,0.11151249706745148
1752116316878067200,3.390067138671875,-0.7336999773979187,0.09404999762773514,-0.12155000120401382
1752116316887921000,3.3999208984375,-0.8401250243186951,0.2153249979019165,-0.17159999907016754
1752116316897774300,3.4097744140625,-0.7783874869346619,0.30896249413490295,-0.16843749582767487
1752116316907628000,3.4196279296875,-0.7188500165939331,0.6708624958992004,-0.21312500536441803
1752116316917481700,3.429481689453125,-0.5889124870300293,1.0422500371932983,-0.3684999942779541
1752116316927335400,3.43933544921875,-0.5271750092506409,1.7562874555587769,-0.49939998984336853
1752116316937188900,3.44918896484375,-0.4399999976158142,2.1543500423431396,-0.6408874988555908
1752116316947042800,3.459042724609375,-0.4240500032901764,2.3926374912261963,-0.8335250020027161
1752116316956896300,3.468896240234375,-0.4133250117301941,2.4831125736236572,-1.047474980354309
1752116316966750000,3.47875,-0.5134249925613403,1.932974934577942,-1.104812502861023
1752116316976603400,3.488603271484375,-0.5931749939918518,0.1578499972820282,-0.5982624888420105
1752116316986457300,3.498457275390625,-0.5187875032424927,-1.7863999605178833,0.05087500065565109
1752116316996310800,3.508310791015625,-0.4207499921321869,-2.5026373863220215,0.5425750017166138
1752116317006164700,3.518164794921875,-0.210099995136261,-2.715487480163574,0.7426375150680542
1752116317016018200,3.52801806640625,-0.020624998956918716,-2.691012382507324,0.6254875063896179
1752116317025872000,3.537871826171875,0.05376249924302101,-2.417525053024292,0.4945875108242035
1752116317035725600,3.5477255859375,-0.12278749793767929,-2.2217249870300293,0.5552250146865845
1752116317045579000,3.5575791015625,-0.2441999912261963,-1.703487515449524,0.5691124796867371
1752116317055432700,3.5674326171875,-0.17393749952316284,-0.49665001034736633,0.24447499215602875
1752116317065286400,3.577286376953125,-0.006874999962747097,0.3568125069141388,-0.2046000063419342
1752116317075140000,3.58714013671875,0.05169999971985817,0.5292375087738037,-0.35144999623298645
1752116317084993500,3.59699365234375,0.1069749966263771,0.3877499997615814,-0.2237125039100647
1752116317094847500,3.606847412109375,0.16554999351501465,0.317487508058548,-0.09913749992847443
1752116317104701000,3.616700927734375,0.06338749825954437,-0.04853750020265579,0.007287499960511923
1752116317114554600,3.6265546875,-0.10051249712705612,-0.608299970626831,0.12319999933242798
1752116317124408300,3.636408203125,-0.07383749634027481,-0.47533750534057617,0.2381500005722046
1752116317134262000,3.646261962890625,-0.09515000134706497,-0.9084625244140625,0.391462504863739
1752116317144115500,3.656115478515625,-0.062150001525878906,-0.5913875102996826,0.2839374840259552
1752116317153969200,3.66596923828125,0.002749999985098839,0.4355999827384949,-0.014024999924004078
1752116317163822800,3.67582275390625,-0.018562499433755875,0.6069250106811523,-0.19923749566078186
1752116317173676300,3.68567626953125,-0.17077499628067017,0.5505499839782715,-0.18438750505447388
1752116317183530200,3.6955302734375,-0.27816250920295715,0.3100624978542328,-0.12155000120401382
1752116317193383700,3.7053837890625,-0.2877874970436096,-0.13805000483989716,0.01677500084042549
1752116317203237600,3.715237548828125,-0.3867875039577484,-0.6115999817848206,0.17531250417232513
1752116317213091000,3.725091064453125,-0.5612750053405762,-1.1723250150680542,0.20198750495910645
1752116317222944800,3.73494482421875,-0.6975374817848206,-1.704450011253357,0.12430000305175781
1752116317232798500,3.744798583984375,-0.720912516117096,-1.9949874877929688,0.11687500029802322
1752116317242652200,3.754652099609375,-0.7442874908447266,-2.0758373737335205,0.2264624983072281
1752116317252505600,3.764505615234375,-0.730537474155426,-1.9408124685287476,0.2913624942302704
1752116317262359600,3.774359619140625,-0.6102250218391418,-1.3937000036239624,0.2615250051021576
1752116317272213000,3.784212890625,-0.5059999823570251,-0.4604874849319458,0.27857500314712524
1752116317282067000,3.79406689453125,-0.9167125225067139,-0.20074999332427979,0.466949999332428
1752116317291920400,3.80392041015625,-1.4605250358581543,-0.8276125192642212,0.7011125087738037
1752116317301773800,3.81377392578125,-1.7010124921798706,-1.2820500135421753,0.8777999877929688
1752116317311627800,3.823627685546875,-1.7382749319076538,-0.9169874787330627,1.025612473487854
1752116317321481200,3.833481201171875,-1.296625018119812,-0.3092375099658966,0.8585500121116638
1752116317331335000,3.8433349609375,-0.553849995136261,-0.5997750163078308,0.6766374707221985
1752116317341188600,3.853188720703125,-0.3282124996185303,-0.4562250077724457,0.42336249351501465
1752116317351042300,3.863042236328125,-0.28462499380111694,-0.06984999775886536,0.2307250052690506
1752116317360896000,3.87289599609375,-0.3484250009059906,0.13763749599456787,0.10188750177621841
1752116317370749700,3.882749755859375,-0.5953750014305115,0.41964998841285706,-0.07039999961853027
1752116317380603100,3.89260302734375,-0.81454998254776,0.7293000221252441,-0.1896124929189682
1752116317390456800,3.902456787109375,-0.8497499823570251,0.9741874933242798,-0.28325000405311584
1752116317400310500,3.912310546875,-0.5879499912261963,1.240112543106079,-0.30992498993873596
1752116317410164200,3.922164306640625,-0.32711249589920044,1.4178999662399292,-0.26840001344680786
1752116317420018000,3.932017822265625,-0.19415000081062317,1.5732749700546265,-0.28008750081062317
1752116317429871600,3.94187158203125,-0.1909874975681305,1.884024977684021,-0.3768875002861023
1752116317439725000,3.95172509765625,-0.37400001287460327,2.0829875469207764,-0.58451247215271
1752116317449578800,3.961578857421875,-0.4867500066757202,2.6768500804901123,-0.6419875025749207
1752116317459432400,3.971432373046875,-0.4963749945163727,2.4534125328063965,-0.7356249690055847
1752116317469286000,3.981285888671875,-0.22824999690055847,2.052187442779541,-0.6824125051498413
1752116317479139800,3.991139892578125,0.04853750020265579,1.4520000219345093,-0.45883750915527344
1752116317488993500,4.00099365234375,0.40603750944137573,0.7623000144958496,-0.10243749618530273
1752116317498847000,4.010846923828125,0.598675012588501,0.2824249863624573,0.2605625092983246
1752116317508700700,4.02070068359375,0.39118748903274536,-0.1933249980211258,0.5446375012397766
1752116317518554000,4.03055419921875,0.2699125111103058,-0.4838624894618988,0.7702749967575073
1752116317528408000,4.040407958984375,0.45182499289512634,-0.4232249855995178,1.024649977684021
1752116317538261500,4.050261474609375,0.5539875030517578,-0.28476250171661377,1.1607749462127686
1752116317548115200,4.060115234375,0.28049999475479126,-0.3583250045776367,0.9171249866485596
1752116317557969000,4.069968994140625,0.1527625024318695,-0.8435624837875366,0.8755999803543091
1752116317567822600,4.079822509765625,0.4965125024318695,-0.6945124864578247,0.7882875204086304
1752116317577676300,4.08967626953125,0.5784624814987183,-0.8094624876976013,0.7532249689102173
1752116317587529700,4.09952978515625,0.5636125206947327,-0.9499874711036682,0.7224249839782715
1752116317597383400,4.109383544921875,0.24323749542236328,-0.8563500046730042,0.5637499690055847
1752116317607237000,4.119237060546875,0.08786249905824661,-0.3018124997615814,0.19456249475479126
1752116317617091000,4.129091064453125,-0.04729999974370003,0.02488750033080578,-0.1247124969959259
1752116317626944500,4.138944580078125,-0.14836250245571136,-0.002749999985098839,-0.33976250886917114
1752116317636798200,4.148798095703125,-0.1494625061750412,0.13653749227523804,-0.46736249327659607
1752116317646652000,4.15865185546875,-0.13983750343322754,-0.037950001657009125,-0.31418749690055847
1752116317656505600,4.168505615234375,-0.0057749999687075615,0.09404999762773514,-0.21092499792575836
1752116317666359000,4.178359130859375,0.06655000150203705,0.0695749968290329,-0.23430000245571136
1752116317676213000,4.188212890625,0.16664999723434448,0.09088750183582306,-0.3003000020980835
1752116317686066400,4.19806640625,0.23897500336170197,0.05458749830722809,-0.296037495136261
1752116317695920000,4.207920166015625,0.07823749631643295,-0.12196250259876251,-0.05664999783039093
1752116317705773600,4.217773681640625,-0.142037495970726,-0.3507624864578247,0.29878750443458557
1752116317715627500,4.22762744140625,-0.202674999833107,-0.5211250185966492,0.5882250070571899
1752116317725481000,4.23748095703125,-0.04729999974370003,-0.5242875218391418,0.6681125164031982
1752116317735334700,4.247334716796875,0.2400749921798706,-0.408237487077713,0.5659499764442444
1752116317745188400,4.257188232421875,0.5252500176429749,-0.2358125001192093,0.35516250133514404
1752116317755042000,4.2670419921875,0.8157874941825867,-0.07411249727010727,0.14024999737739563
1752116317764895700,4.276895751953125,0.9711624979972839,0.42707499861717224,-0.10559999942779541
1752116317774749200,4.286749267578125,1.2138500213623047,0.952875018119812,-0.20776249468326569
1752116317784603100,4.29660302734375,1.2392874956130981,0.9582374691963196,-0.20982499420642853
1752116317794456600,4.30645654296875,1.1063250303268433,0.8815125226974487,-0.10339999943971634
1752116317804310300,4.316310302734375,1.2190749645233154,0.8358625173568726,-0.12264999747276306
1752116317814164000,4.3261640625,1.4521374702453613,0.9220749735832214,-0.27582499384880066
1752116317824017700,4.336017578125,1.5670875310897827,1.1668249368667603,-0.509987473487854
1752116317833871400,4.345871337890625,1.5872999429702759,1.196524977684021,-0.6377249956130981
1752116317843725000,4.35572509765625,1.713937520980835,0.7900750041007996,-0.7217375040054321
1752116317853578800,4.365578857421875,1.656462550163269,-0.017737500369548798,-0.6089875102043152
1752116317863432200,4.37543212890625,1.4841749668121338,0.23127499222755432,-0.4758875072002411
1752116317873286000,4.385285888671875,1.1914374828338623,0.3324750065803528,-0.24502499401569366
1752116317883139600,4.3951396484375,0.952049970626831,0.6793875098228455,-0.040699999779462814
1752116317892993300,4.4049931640625,0.7466250061988831,0.6868125200271606,-0.0193875003606081
1752116317902847000,4.414846923828125,0.6274124979972839,0.5016000270843506,-0.10986249893903732
1752116317912700700,4.42470068359375,0.4422000050544739,0.6347000002861023,-0.2662000060081482
1752116317922554400,4.434554443359375,0.3858250081539154,0.9178124666213989,-0.5088874697685242
1752116317932408000,4.444407958984375,0.27197501063346863,0.5985375046730042,-0.6067875027656555
1752116317942261500,4.454261474609375,0.004812499973922968,0.45801249146461487,-0.761062502861023
1752116317952115200,4.464115234375,-0.14093749225139618,0.21326249837875366,-0.6951999664306641
1752116317961969000,4.473968994140625,-0.12498749792575836,0.16541250050067902,-0.593037486076355
1752116317971822800,4.48382275390625,-0.16005000472068787,0.08236250281333923,-0.4536125063896179
1752116317981676300,4.49367626953125,-0.21326249837875366,0.1578499972820282,-0.25671249628067017
1752116317991530000,4.503530029296875,-0.30373749136924744,0.2844874858856201,-0.20886249840259552
1752116318001383400,4.513383544921875,-0.4846875071525574,0.31542500853538513,-0.18438750505447388
1752116318011237400,4.5232373046875,-0.6198499798774719,0.35694998502731323,-0.2237125039100647
1752116318021090800,4.5330908203125,-0.6261749863624573,0.3282124996185303,-0.3694624900817871
1752116318030944800,4.54294482421875,-0.6358000040054321,0.23663750290870667,-0.4567750096321106
1752116318040798200,4.552798095703125,-0.6740249991416931,0.24199999868869781,-0.4408249855041504
1752116318050652000,4.56265185546875,-0.8336625099182129,0.2611125111579895,-0.5302000045776367
1752116318060505600,4.572505615234375,-0.9209749698638916,0.19841249287128448,-0.7526749968528748
1752116318070359300,4.582359375,-0.8421875238418579,0.11316250264644623,-0.9898625016212463
1752116318080213000,4.592212890625,-0.9167125225067139,0.2303124964237213,-1.3580875396728516
1752116318090066700,4.602066650390625,-0.843287467956543,0.043037500232458115,-1.431512475013733
1752116318099920100,4.611920166015625,-0.8358625173568726,0.2633124887943268,-1.4272500276565552
1752116318109773800,4.62177392578125,-0.9113500118255615,0.553849995136261,-1.59871244430542
1752116318119627500,4.63162744140625,-1.1167750358581543,0.5218124985694885,-1.6667749881744385
1752116318129481200,4.641481201171875,-1.5615874528884888,1.2328250408172607,-1.5125000476837158
1752116318139335000,4.6513349609375,-1.271049976348877,1.2093124389648438,-1.5890874862670898
1752116318149188600,4.661188720703125,-0.8199124932289124,0.7198125123977661,-1.7806249856948853
1752116318159042300,4.671042236328125,-0.33137500286102295,0.8390250205993652,-1.5199249982833862
1752116318168895700,4.680895751953125,0.26455000042915344,1.1167750358581543,-1.1921249628067017
1752116318178749700,4.690749755859375,1.0733250379562378,0.7528125047683716,-0.8685874938964844
1752116318188603100,4.70060302734375,1.4521374702453613,0.8336625099182129,-0.7621625065803528
1752116318198456800,4.710456787109375,1.7661875486373901,1.4434750080108643,-0.4769875109195709
1752116318208310500,4.720310546875,2.4227499961853027,1.6105375289916992,0.015812499448657036
1752116318218164200,4.730164306640625,2.6654374599456787,2.201237440109253,0.09019999951124191
1752116318228018000,4.740017822265625,2.679187536239624,1.994712471961975,0.37014999985694885
1752116318237871600,4.74987158203125,2.710124969482422,2.4385623931884766,0.48606249690055847
1752116318247725300,4.759725341796875,2.4492874145507812,2.36403751373291,0.3871999979019165
1752116318257579000,4.7695791015625,2.1833624839782715,2.007499933242798,0.38926249742507935
1752116318267432700,4.7794326171875,1.9247249364852905,2.1905124187469482,0.026399999856948853
1752116318277286100,4.7892861328125,1.872612476348877,1.8148624897003174,-0.4067249894142151
1752116318287140000,4.79914013671875,1.7022500038146973,1.6839624643325806,-0.7132124900817871
1752116318296993800,4.808993896484375,1.638450026512146,1.4690500497817993,-0.8142749667167664
1752116318306847200,4.81884716796875,1.7533999681472778,0.9944000244140625,-0.9931625127792358
1752116318316701000,4.828700927734375,1.841675043106079,0.869825005531311,-1.0825375318527222
1752116318326554600,4.8385546875,1.69798743724823,1.0487124919891357,-0.8090500235557556
1752116318336408300,4.848408203125,1.5224000215530396,1.2104125022888184,-0.5780500173568726
1752116318346262000,4.858261962890625,1.259637475013733,1.0784125328063965,-0.49293750524520874
1752116318356115700,4.86811572265625,1.026574969291687,0.8156499862670898,-0.49720001220703125
1752116318365969200,4.87796923828125,0.7445625066757202,0.6591749787330627,-0.3971000015735626
1752116318375823000,4.887822998046875,0.35186249017715454,0.5431249737739563,-0.2694999873638153
1752116318385676500,4.897676513671875,-0.0035749999806284904,0.3856875002384186,-0.2012999951839447
1752116318395530200,4.9075302734375,-0.3324750065803528,0.2653749883174896,-0.13323749601840973
1752116318405384000,4.917384033203125,-0.6113250255584717,0.21216249465942383,-0.04386249929666519
1752116318415237600,4.927237548828125,-0.8549749851226807,0.21119999885559082,-0.004399999976158142
1752116318425091300,4.93709130859375,-1.1263999938964844,0.11646249890327454,-0.033137500286102295
1752116318434945000,4.946945068359375,-1.3116124868392944,0.09088750183582306,-0.05238749831914902
1752116318444798500,4.956798583984375,-1.3956249952316284,0.09515000134706497,0.01251249946653843
1752116318454652400,4.96665234375,-1.5009499788284302,0.05582499876618385,0.1274625062942505
1752116318464506000,4.976506103515625,-1.4254624843597412,-0.07301250100135803,0.16472500562667847
1752116318474359800,4.98635986328125,-1.4126750230789185,-0.14533749222755432,0.2083124965429306
1752116318484213200,4.996213134765625,-1.4073125123977661,-0.2815999984741211,0.23925000429153442
1752116318494067200,5.006067138671875,-1.3520375490188599,-0.3081375062465668,0.2722499966621399
1752116318503920600,5.015920654296875,-1.297724962234497,-0.2751374840736389,0.44673749804496765
1752116318513774600,5.025774658203125,-1.2732499837875366,-0.2730749845504761,0.6617875099182129
1752116318523628000,5.0356279296875,-1.288100004196167,-0.2773374915122986,0.8340749740600586
1752116318533481700,5.045481689453125,-1.2903000116348267,-0.29438748955726624,0.9213874936103821
1752116318543335400,5.05533544921875,-1.2903000116348267,-0.2932874858379364,0.9490249752998352
1752116318553189400,5.065189453125,-1.279574990272522,-0.46254998445510864,1.0394999980926514
1752116318563042800,5.075042724609375,-1.1976250410079956,-0.454025000333786,1.1842875480651855
1752116318572896500,5.084896484375,-1.0976624488830566,-0.5124624967575073,1.3087249994277954
1752116318582750200,5.094750244140625,-0.9795500040054321,-0.5263500213623047,1.3576749563217163
1752116318592604000,5.10460400390625,-0.8623999953269958,-0.46777498722076416,1.3098249435424805
1752116318602457600,5.11445751953125,-0.8082249760627747,-0.45608749985694885,1.1735625267028809
1752116318612311300,5.124311279296875,-0.7880125045776367,-0.39434999227523804,0.847962498664856
1752116318622165000,5.1341650390625,-0.7081249952316284,-0.31349998712539673,0.4499000012874603
1752116318632018700,5.144018798828125,-0.4815250039100647,-0.10175000131130219,0.2605625092983246
1752116318641872400,5.153872314453125,-0.15468749403953552,0.16967499256134033,0.18177500367164612
1752116318651726000,5.16372607421875,0.08676250278949738,0.3398999869823456,0.1615625023841858
1752116318661579800,5.173579833984375,0.19965000450611115,0.24089999496936798,0.25946250557899475
1752116318671433500,5.18343359375,0.18892499804496765,0.1568875014781952,0.2796750068664551
1752116318681287200,5.193287109375,0.15812499821186066,0.011137500405311584,0.414837509393692
1752116318691140900,5.203140869140625,0.12402500212192535,0.014299999922513962,0.512737512588501
1752116318700994600,5.21299462890625,0.170912504196167,0.06641250103712082,0.4723125100135803
1752116318710848300,5.22284814453125,0.15812499821186066,0.020624998956918716,0.4776749908924103
1752116318720702000,5.232701904296875,0.11769999563694,0.09721250087022781,0.3488374948501587
1752116318730555600,5.2425556640625,0.08786249905824661,0.13241249322891235,0.20941250026226044
1752116318740409000,5.2524091796875,0.04427500069141388,0.12278749793767929,0.1317249983549118
1752116318750262800,5.2622626953125,0.05376249924302101,0.08772499859333038,0.047712501138448715
1752116318760116700,5.27211669921875,0.06338749825954437,-0.008112499490380287,-0.018287500366568565
1752116318769970200,5.28197021484375,0.06132499873638153,-0.09006249904632568,-0.03739999979734421
1752116318779823900,5.291823974609375,0.05376249924302101,-0.05912499874830246,-0.02681249938905239
1752116318789677600,5.301677490234375,0.07507500052452087,-0.004812499973922968,0.021037500351667404
1752116318799531300,5.31153125,0.21449999511241913,0.06104999780654907,0.018975000828504562
1752116318809385000,5.321385009765625,0.2666124999523163,0.015399999916553497,0.04235000163316727
1752116318819238700,5.33123876953125,0.2560249865055084,0.06641250103712082,0.01677500084042549
1752116318829092400,5.34109228515625,0.2815999984741211,0.10051249712705612,-0.00976249948143959
1752116318838946000,5.350946044921875,0.47203749418258667,0.05252499878406525,0.045512501150369644
1752116318848799700,5.3607998046875,0.5934500098228455,0.043037500232458115,0.1434125006198883
1752116318858653400,5.3706533203125,0.5115000009536743,0.07809999585151672,0.20198750495910645
1752116318868507100,5.380507080078125,0.492249995470047,0.1036750003695488,0.2307250052690506
1752116318878360800,5.39036083984375,0.5486249923706055,0.15482500195503235,0.23292499780654907
1752116318888214500,5.400214599609375,0.5955125093460083,0.195250004529953,0.23388749361038208
1752116318898068200,5.410068115234375,0.589187502861023,0.18136249482631683,0.25946250557899475
1752116318907922000,5.419921875,0.6188874840736389,0.1802625060081482,0.2626250088214874
1752116318917775600,5.429775634765625,0.6795250177383423,0.07713750004768372,0.3106124997138977
1752116318927629300,5.43962939453125,0.7327374815940857,-0.07507500052452087,0.392425000667572
1752116318937483000,5.44948291015625,0.6965749859809875,-0.20817500352859497,0.4296875
1752116318947336700,5.459336669921875,0.5593500137329102,-0.37523749470710754,0.40424999594688416
1752116318957190100,5.469190185546875,0.4529249966144562,-0.492249995470047,0.37331250309944153
1752116318967044000,5.479044189453125,0.4390375018119812,-0.32628750801086426,0.3339875042438507
1752116318976897800,5.488897705078125,0.45925000309944153,-0.2773374915122986,0.3499374985694885
1752116318986751500,5.49875146484375,0.42102500796318054,-0.1751749962568283,0.3020874857902527
1752116318996605200,5.508605224609375,0.31776249408721924,-0.12306249886751175,0.20941250026226044
1752116319006459000,5.518458984375,0.19744999706745148,-0.028324998915195465,0.09239999949932098
1752116319016312300,5.528312255859375,0.09638749808073044,0.057887498289346695,-0.023649999871850014
1752116319026166300,5.538166259765625,0.026124998927116394,0.08772499859333038,-0.04702499881386757
1752116319036019700,5.548019775390625,-0.057887498289346695,0.07919999957084656,-0.027912499383091927
1752116319045873400,5.557873291015625,-0.09088750183582306,0.025987500324845314,0.03918749839067459
1752116319055727000,5.56772705078125,-0.10683749616146088,-0.022962499409914017,0.11467500030994415
1752116319065580800,5.577580810546875,-0.12278749793767929,-0.10271249711513519,0.1467124968767166
1752116319075434500,5.5874345703125,-0.1260875016450882,-0.16238750517368317,0.13282500207424164
1752116319085288200,5.5972880859375,-0.06861250102519989,-0.15592500567436218,0.10202500224113464
1752116319095142000,5.607141845703125,0.011274999938905239,-0.1825999915599823,0.10408750176429749
1752116319104995600,5.61699560546875,0.164450004696846,-0.3188624978065491,0.22013749182224274
1752116319114849300,5.626849365234375,0.23045000433921814,-0.41346248984336853,0.2733500003814697
1752116319124703000,5.636702880859375,0.2623499929904938,-0.42625001072883606,0.29782500863075256
1752116319134556700,5.646556640625,0.1634874939918518,-0.34966251254081726,0.24777500331401825
1752116319144410400,5.656410400390625,-0.09941250085830688,-0.17297500371932983,0.12856249511241913
1752116319154264000,5.66626416015625,-0.15372499823570251,0.04839999973773956,0.0317624993622303
1752116319164117800,5.67611767578125,-0.233474999666214,0.14630000293254852,-0.014024999924004078
1752116319173971500,5.685971435546875,-0.3282124996185303,0.2069374918937683,-0.06407500058412552
1752116319183825200,5.6958251953125,-0.37716248631477356,0.2675749957561493,-0.13433749973773956
1752116319193678800,5.705678955078125,-0.3675374984741211,0.21326249837875366,-0.16087499260902405
1752116319203532500,5.715532470703125,-0.4059000015258789,0.11426249891519547,-0.1289750039577484
1752116319213386200,5.72538623046875,-0.3984749913215637,0.10161250084638596,-0.10986249893903732
1752116319223240000,5.735239990234375,-0.37716248631477356,0.11426249891519547,-0.10449999570846558
1752116319233093600,5.74509375,-0.3452624976634979,0.1335124969482422,-0.08208750188350677
1752116319242947300,5.754947265625,-0.31652501225471497,0.179299995303154,-0.03849999979138374
1752116319252801000,5.764801025390625,-0.3091000020503998,0.2494249939918518,-0.011962499469518661
1752116319262654700,5.77465478515625,-0.3068999946117401,0.3026374876499176,-0.023649999871850014
1752116319272508400,5.78450830078125,-0.3133625090122223,0.3282124996185303,-0.05238749831914902
1752116319282362000,5.794362060546875,-0.32394999265670776,0.33137500286102295,-0.08428750187158585
1752116319292215800,5.8042158203125,-0.33192500472068787,0.32133749127388,-0.1293874979019165
1752116319302069500,5.814069580078125,-0.29782500863075256,0.26276248693466187,-0.147537499666214
1752116319311923200,5.823923095703125,-0.19139999151229858,0.1266375035047531,-0.11879999935626984
1752116319321777000,5.83377685546875,-0.05087500065565109,0.028599999845027924,-0.07837499678134918
1752116319331630600,5.843630615234375,0.0681999996304512,0.03506249934434891,-0.06875000149011612
1752116319341484500,5.853484619140625,0.07246249914169312,-0.06599999964237213,0.021724998950958252
1752116319351338000,5.863337890625,0.08524999767541885,-0.0448249988257885,0.13763749599456787
1752116319361192000,5.87319189453125,0.06407500058412552,0.012649999931454659,0.15152500569820404
1752116319371045400,5.88304541015625,0.04166249930858612,0.05211250111460686,0.14506250619888306
1752116319380899000,5.892899169921875,0.02681249938905239,0.07438749819993973,0.12058749794960022
1752116319390752800,5.902752685546875,0.018287500366568565,0.08084999769926071,0.1046374961733818
1752116319400606500,5.9126064453125,0.021449999883770943,0.0648999959230423,0.09184999763965607
1752116319410460400,5.92246044921875,0.029975000768899918,0.047849997878074646,0.07699999958276749
1752116319420313900,5.93231396484375,0.035337500274181366,0.03932499885559082,0.06311249732971191
1752116319430167800,5.942167724609375,0.03739999979734421,0.030799999833106995,0.050462499260902405
1752116319440021200,5.952021240234375,0.03959999978542328,0.01691249944269657,0.03973750025033951
1752116319449875200,5.961875244140625,0.033137500286102295,0.008387500420212746,0.03863750025629997
1752116319459728600,5.971728759765625,0.027775000780820847,0.004124999977648258,0.05362499877810478
1752116319469582600,5.98158251953125,0.020349999889731407,0.008387500420212746,0.07273750007152557
1752116319479436000,5.99143603515625,0.006599999964237213,0.018012499436736107,0.08332499861717224
1752116319489290000,6.0012900390625,-0.007287499960511923,0.023375000804662704,0.0812624990940094
1752116319499143400,6.011143310546875,-0.021175000816583633,0.03506249934434891,0.05884999781847
1752116319508997400,6.020997314453125,-0.03712499886751175,0.04138749837875366,0.028049999848008156
1752116319518851000,6.03085107421875,-0.04235000163316727,0.03932499885559082,0.007837500423192978
1752116319528704800,6.040704833984375,-0.04661250114440918,0.023375000804662704,0.004674999974668026
1752116319538558500,6.050558349609375,-0.043449997901916504,0.007424999959766865,0.008937500417232513
1752116319548412200,6.060412109375,-0.04028749838471413,-0.005362499970942736,0.014162499457597733
1752116319558265900,6.070265869140625,-0.036024998873472214,-0.0170499999076128,0.0035749999806284904
1752116319568119600,6.08011962890625,-0.03712499886751175,-0.030937500298023224,-0.006049999967217445
1752116319577973200,6.08997314453125,-0.03396249935030937,-0.030937500298023224,-0.01979999989271164
1752116319587827000,6.099826904296875,-0.026399999856948853,-0.02447500079870224,-0.02722499892115593
1752116319597680600,6.1096806640625,-0.02213750034570694,-0.016087500378489494,-0.028324998915195465
1752116319607534300,6.119534423828125,-0.0147124994546175,-0.007562499959021807,-0.028324998915195465
1752116319617388000,6.129387939453125,-0.008387500420212746,-0.007562499959021807,-0.028324998915195465
1752116319627241700,6.13924169921875,-0.006187499966472387,-0.021312499418854713,-0.03368749842047691
1752116319637095700,6.149095703125,-0.0030249999836087227,-0.02667500078678131,-0.04331250116229057
1752116319646949400,6.158949462890625,-0.0009624999947845936,-0.0448249988257885,-0.04427500069141388
1752116319656802800,6.168802734375,-0.004124999977648258,-0.06173750013113022,-0.03258749842643738
1752116319666656800,6.17865673828125,-0.005224999971687794,-0.07452499866485596,-0.016637500375509262
1752116319676510200,6.18851025390625,-0.010449999943375587,-0.07452499866485596,-0.01347499992698431
1752116319686364000,6.198364013671875,-0.009349999949336052,-0.06393750011920929,-0.020899999886751175
1752116319696217600,6.208217529296875,-0.010449999943375587,-0.05224999785423279,-0.04427500069141388
1752116319706071600,6.218071533203125,-0.004124999977648258,-0.04262499883770943,-0.06668750196695328
1752116319715925000,6.227925048828125,0.007562499959021807,-0.04152499884366989,-0.08470000326633453
1752116319725779000,6.237779052734375,0.022549999877810478,-0.04262499883770943,-0.08799999952316284
1752116319735632400,6.24763232421875,0.04166249930858612,-0.05224999785423279,-0.08153750002384186
1752116319745486000,6.257486083984375,0.056512501090765,-0.05004999786615372,-0.07411249727010727
1752116319755339800,6.26733984375,0.07039999961853027,-0.03629999980330467,-0.06984999775886536
1752116319765193500,6.277193359375,0.07672499865293503,-0.0042624999769032,-0.08153750002384186
1752116319775047200,6.287047119140625,0.08428750187158585,0.02969999983906746,-0.08896250277757645
1752116319784901000,6.296901123046875,0.09597499668598175,0.05101250112056732,-0.09116250276565552
1752116319794754600,6.306754638671875,0.11618749797344208,0.06696250289678574,-0.07947500050067902
1752116319804608500,6.3166083984375,0.13846249878406525,0.06696250289678574,-0.05169999971985817
1752116319814462200,6.326462158203125,0.16940000653266907,0.05101250112056732,-0.011274999938905239
1752116319824316000,6.33631591796875,0.19813749194145203,0.02227500081062317,0.03231250122189522
1752116319834169600,6.346169677734375,0.21834999322891235,0.0031624999828636646,0.06531249731779099
1752116319844023300,6.356023193359375,0.23430000245571136,-0.0042624999769032,0.07590000331401825
1752116319853877000,6.365876953125,0.23966249823570251,0.002062499988824129,0.07273750007152557
1752116319863730700,6.375730712890625,0.24062499403953552,-0.002199999988079071,0.05678749829530716
1752116319873584400,6.38558447265625,0.2513499855995178,-0.01924999989569187,0.04619999974966049
1752116319883438000,6.39543798828125,0.25657498836517334,-0.03616249933838844,0.04193750023841858
1752116319893291800,6.405291748046875,0.25657498836517334,-0.057475000619888306,0.050462499260902405
1752116319903145500,6.4151455078125,0.24914999306201935,-0.055412501096725464,0.057887498289346695
1752116319912999200,6.424999267578125,0.2470874935388565,-0.056512501090765,0.062150001525878906
1752116319922852900,6.434852783203125,0.24914999306201935,-0.045787498354911804,0.057887498289346695
1752116319932706600,6.44470654296875,0.24818749725818634,-0.023512499406933784,0.0471624992787838
1752116319942560300,6.454560302734375,0.23003749549388885,0.009487500414252281,0.03657500073313713
1752116319952414000,6.4644140625,0.20019999146461487,0.03396249935030937,0.040837500244379044
1752116319962267600,6.474267578125,0.1597750037908554,0.0424874983727932,0.05362499877810478
1752116319972121300,6.484121337890625,0.11935000121593475,0.04675000160932541,0.06641250103712082
1752116319991829000,6.5038291015625,0.06077500060200691,0.020212499424815178,0.057887498289346695
1752116320001682700,6.5136826171875,0.0448249988257885,0.0031624999828636646,0.035475000739097595
1752116320011536400,6.523536376953125,0.029975000768899918,-0.011687500402331352,0.015262499451637268
1752116320021389800,6.533389892578125,0.01924999989569187,-0.014987500384449959,0.006737499963492155
1752116320031243800,6.543243896484375,0.0012374999932944775,-0.011687500402331352,0.002474999986588955
1752116320041097200,6.55309716796875,-0.017875000834465027,-0.011687500402331352,-0.0006874999962747097
1752116320050951200,6.562951171875,-0.03492499887943268,-0.007424999959766865,-0.012374999932944775
1752116320060804900,6.572804931640625,-0.04455000162124634,-0.002199999988079071,-0.026262499392032623
1752116320070658600,6.582658447265625,-0.057337500154972076,0.009487500414252281,-0.03478749841451645
1752116320080512000,6.592511962890625,-0.07438749819993973,0.027637500315904617,-0.04427500069141388
1752116320090366000,6.602365966796875,-0.09129999577999115,0.028737500309944153,-0.0411125011742115
1752116320100219600,6.6122197265625,-0.10312499850988388,0.027637500315904617,-0.03478749841451645
1752116320110073300,6.6220732421875,-0.11371249705553055,0.026537500321865082,-0.020899999886751175
1752116320119927000,6.631927001953125,-0.11687500029802322,0.038224998861551285,-0.01347499992698431
1752116320129780700,6.64178076171875,-0.12223749607801437,0.05637500062584877,-0.016637500375509262
1752116320139634400,6.651634521484375,-0.12223749607801437,0.07122500240802765,-0.025162499397993088
1752116320149488000,6.661488037109375,-0.11687500029802322,0.06806249916553497,-0.035750001668930054
1752116320159341800,6.671341796875,-0.10518749803304672,0.0541750006377697,-0.03368749842047691
1752116320169195800,6.68119580078125,-0.09776250272989273,0.038224998861551285,-0.01979999989271164
1752116320179049200,6.69104931640625,-0.09033749997615814,0.03506249934434891,0.002474999986588955
1752116320188903200,6.700903076171875,-0.08607500046491623,0.03932499885559082,0.023787500336766243
1752116320198756600,6.710756591796875,-0.0775500014424324,0.055275000631809235,0.03863750025629997
1752116320208610600,6.720610595703125,-0.07328750193119049,0.07768750190734863,0.040837500244379044
1752116320218464000,6.730464111328125,-0.07328750193119049,0.08937499672174454,0.040837500244379044
1752116320228318000,6.74031787109375,-0.07438749819993973,0.0999625027179718,0.037675000727176666
1752116320238171400,6.75017138671875,-0.07535000145435333,0.11384999752044678,0.040837500244379044
1752116320248025300,6.760025390625,-0.06902500241994858,0.12553749978542328,0.05678749829530716
1752116320257879000,6.769879150390625,-0.060499999672174454,0.15963749587535858,0.09941250085830688
1752116320267732700,6.779732666015625,-0.0625625029206276,0.20954999327659607,0.15152500569820404
1752116320277586400,6.78958642578125,-0.0658624991774559,0.24681249260902405,0.17599999904632568
1752116320287440100,6.799440185546875,-0.0849749967455864,0.26179999113082886,0.17063750326633453
1752116320297293800,6.8092939453125,-0.1083500012755394,0.2521750032901764,0.15468749403953552
1752116320307147500,6.8191474609375,-0.13186250627040863,0.22769999504089355,0.14932499825954437
1752116320317001200,6.829001220703125,-0.15303750336170197,0.20748749375343323,0.1504250019788742
1752116320326855200,6.838855224609375,-0.17008750140666962,0.20542499423027039,0.17063750326633453
1752116320336708600,6.84870849609375,-0.18713749945163727,0.23416249454021454,0.20253749191761017
1752116320346562600,6.8585625,-0.19772499799728394,0.28091248869895935,0.233474999666214
1752116320356416000,6.868416015625,-0.20624999701976776,0.335224986076355,0.25148749351501465
1752116320366270000,6.87827001953125,-0.2147749960422516,0.38733750581741333,0.26647499203681946
1752116320376123400,6.888123291015625,-0.21367499232292175,0.4351874887943268,0.28022500872612
1752116320385977300,6.897977294921875,-0.21367499232292175,0.47148749232292175,0.2952125072479248
1752116320395830800,6.907830810546875,-0.20624999701976776,0.5224999785423279,0.32711249589920044
1752116320405684700,6.917684814453125,-0.19676250219345093,0.6374499797821045,0.3823874890804291
1752116320415538200,6.9275380859375,-0.18603749573230743,0.762024998664856,0.4591124951839447
1752116320425392000,6.93739208984375,-0.1956624984741211,0.8523625135421753,0.5388625264167786
1752116320435245600,6.94724560546875,-0.2264624983072281,0.8673499822616577,0.6028000116348267
1752116320445099500,6.957099609375,-0.27445000410079956,0.8460375070571899,0.6250749826431274
1752116320454953200,6.966953125,-0.31693750619888306,0.8588249683380127,0.6111875176429749
1752116320464807000,6.976806884765625,-0.322299987077713,0.9088749885559082,0.5974375009536743
1752116320474660600,6.98666064453125,-0.2796750068664551,0.9098374843597412,0.5772249698638916
1752116320484514300,6.996514404296875,-0.22756250202655792,0.8258249759674072,0.5368000268936157
1752116320494368300,7.0063681640625,-0.16046249866485596,0.6843374967575073,0.4782249927520752
1752116320504221700,7.0162216796875,-0.09033749997615814,0.5363875031471252,0.4111250042915344
1752116320514075400,7.026075439453125,-0.017875000834465027,0.40012499690055847,0.3345375061035156
1752116320523929300,7.035929443359375,0.057612501084804535,0.283112496137619,0.25478750467300415
1752116320533782800,7.04578271484375,0.12993749976158142,0.18411250412464142,0.16431249678134918
1752116320543636500,7.055636474609375,0.17998750507831573,0.06173750013113022,0.04936249926686287
1752116320553490200,7.065490234375,0.20762500166893005,-0.11384999752044678,-0.0826374962925911
1752116320563344100,7.07534423828125,0.21408750116825104,-0.3161124885082245,-0.24117499589920044
1752116320573197600,7.085197509765625,0.21408750116825104,-0.5246999859809875,-0.4199250042438507
1752116320583051500,7.095051513671875,0.2172500044107437,-0.724762499332428,-0.608299970626831
1752116320592905000,7.104905029296875,0.21834999322891235,-0.8853625059127808,-0.7977749705314636
1752116320602759000,7.114759033203125,0.23539999127388,-1.01419997215271,-0.9807875156402588
1752116320612612600,7.124612548828125,0.2619374990463257,-1.124887466430664,-1.1330000162124634
1752116320622466300,7.13446630859375,0.28008750081062317,-1.2515250444412231,-1.2372249364852905
1752116320632320000,7.144320068359375,0.2886124849319458,-1.349424958229065,-1.2414875030517578
1752116320642173700,7.154173583984375,0.2769249975681305,-1.366474986076355,-1.1063250303268433
1752116320652027400,7.16402734375,0.2619374990463257,-1.3388375043869019,-0.8999375104904175
1752116320661881000,7.173881103515625,0.1555124968290329,-1.290850043296814,-0.6848874688148499
1752116320671734800,7.18373486328125,0.0193875003606081,-1.1664124727249146,-0.5934500098228455
1752116320681588500,7.19358837890625,-0.07328750193119049,-0.901449978351593,-0.5763999819755554
1752116320691442200,7.203442138671875,-0.1424500048160553,-0.5172749757766724,-0.4763000011444092
1752116320701296000,7.213296142578125,-0.1467124968767166,0.002062499988824129,-0.17737500369548798
1752116320711149600,7.223149658203125,-0.11371249705553055,0.5352874994277954,0.28984999656677246
1752116320721003500,7.23300341796875,-0.0849749967455864,0.9194625020027161,0.7528125047683716
1752116320730857000,7.24285693359375,-0.06476250290870667,1.1972124576568604,1.1071499586105347
1752116320740711000,7.2527109375,-0.07961250096559525,1.309000015258789,1.2944250106811523
1752116320750564600,7.262564697265625,-0.11261250078678131,1.2515250444412231,1.3466750383377075
1752116320760418300,7.272418212890625,-0.15950000286102295,1.0950499773025513,1.3199999332427979
1752116320770272000,7.28227197265625,-0.1891999989748001,0.9268875122070312,1.253037452697754
1752116320780125700,7.292125732421875,-0.18081249296665192,0.8067125082015991,1.138087511062622
1752116320789979400,7.3019794921875,-0.18177500367164612,0.7566624879837036,0.9369249939918518
1752116320799833000,7.3118330078125,-0.2073500007390976,0.6810374855995178,0.6762250065803528
1752116320809686800,7.321686767578125,-0.24351249635219574,0.5863000154495239,0.41868749260902405
1752116320819540700,7.331540771484375,-0.2924624979496002,0.43408748507499695,0.2079000025987625
1752116320829394200,7.341394287109375,-0.3339875042438507,0.2297624945640564,0.06641250103712082
1752116320839248100,7.351248046875,-0.3573625087738037,-0.005362499970942736,-0.04001250118017197
1752116320849101600,7.3611015625,-0.35420000553131104,-0.20762500166893005,-0.15070000290870667
1752116320858955300,7.370955322265625,-0.3265624940395355,-0.3596999943256378,-0.2784374952316284
1752116320868809000,7.38080908203125,-0.27541249990463257,-0.48963749408721924,-0.4104374945163727
1752116320878662700,7.39066259765625,-0.22013749182224274,-0.5927624702453613,-0.5380374789237976
1752116320888516400,7.400516357421875,-0.16266250610351562,-0.6917625069618225,-0.6477624773979187
1752116320898370300,7.410370361328125,-0.08607500046491623,-0.7779750227928162,-0.7306749820709229
1752116320908224000,7.42022412109375,0.007562499959021807,-0.8482375144958496,-0.7860875129699707
1752116320918077700,7.43007763671875,0.11728750169277191,-0.8758749961853027,-0.8073999881744385
1752116320927931400,7.439931396484375,0.21188749372959137,-0.8695499897003174,-0.782925009727478
1752116320937785000,7.44978515625,0.30346250534057617,-0.7353500127792358,-0.6945124864578247
1752116320947638800,7.459638671875,0.3726249933242798,-0.5640249848365784,-0.5211250185966492
1752116320957492500,7.469492431640625,0.3737249970436096,-0.4470124840736389,-0.27211248874664307
1752116320967346200,7.47934619140625,0.3279374837875366,-0.3821125030517578,-0.04853750020265579
1752116320977200000,7.4892001953125,0.24062499403953552,-0.30758750438690186,0.08442500233650208
1752116320987053800,7.4990537109375,0.14066250622272491,-0.19910000264644623,0.11852499842643738
1752116320996907500,7.508907470703125,0.06833750009536743,-0.04262499883770943,0.07067500054836273
1752116321006761200,7.51876123046875,0.03739999979734421,0.1414874941110611,-0.0017874999903142452
1752116321016615000,7.528614990234375,0.027775000780820847,0.29906249046325684,-0.028324998915195465
1752116321026468900,7.53846875,0.022549999877810478,0.381974995136261,-0.022962499409914017
1752116321036322300,7.548322265625,0.010862499475479126,0.33192500472068787,0.0015124999918043613
1752116321046176000,7.558176025390625,-0.009349999949336052,0.18837499618530273,0.03231250122189522
1752116321056029700,7.56802978515625,-0.03918749839067459,0.019112499430775642,0.04619999974966049
1752116321065883400,7.57788330078125,-0.06476250290870667,-0.1097249984741211,0.037675000727176666
1752116321075737000,7.587737060546875,-0.08387500047683716,-0.18521249294281006,-0.0006874999962747097
1752116321085590800,7.5975908203125,-0.10312499850988388,-0.22247499227523804,-0.04427500069141388
1752116321095444700,7.60744482421875,-0.11481250077486038,-0.21601249277591705,-0.07727500051259995
1752116321105298200,7.617298095703125,-0.1083500012755394,-0.18521249294281006,-0.09542500227689743
1752116321115152000,7.62715185546875,-0.08387500047683716,-0.15867500007152557,-0.09638749808073044
1752116321125005600,7.637005615234375,-0.045649997889995575,-0.1373624950647354,-0.08799999952316284
1752116321134859500,7.646859619140625,-0.02433750033378601,-0.1097249984741211,-0.07617499679327011
1752116321144713200,7.656713134765625,-0.02213750034570694,-0.13199999928474426,-0.07837499678134918
1752116321154567000,7.66656689453125,-0.015812499448657036,-0.17668749392032623,-0.06778749823570251
1752116321164420600,7.676420654296875,-0.018975000828504562,-0.21504999697208405,-0.054999999701976776
1752116321174274300,7.6862744140625,-0.02433750033378601,-0.1746249943971634,-0.060224998742341995
1752116321184128000,7.6961279296875,-0.026399999856948853,-0.11604999750852585,-0.062424998730421066
1752116321193981700,7.705981689453125,-0.0030249999836087227,-0.07562500238418579,-0.03684999793767929
1752116321203835400,7.71583544921875,0.020349999889731407,-0.04468749836087227,0.00989999994635582
1752116321213689000,7.725689208984375,0.03629999980330467,-0.007424999959766865,0.03451250120997429
1752116321223542800,7.735542724609375,0.03203750029206276,0.04468749836087227,0.0471624992787838
1752116321233396700,7.745396728515625,0.03959999978542328,0.04152499884366989,0.06847500056028366
1752116321243250200,7.755250244140625,0.035337500274181366,0.06063750013709068,0.08868750184774399
1752116321253104000,7.765104248046875,0.01924999989569187,0.09790000319480896,0.07590000331401825
1752116321262957600,7.77495751953125,0.00013749999925494194,0.08291249722242355,0.06641250103712082
1752116321272811500,7.7848115234375,-0.0030249999836087227,0.05843750014901161,0.07919999957084656
1752116321282665200,7.794665283203125,-0.015812499448657036,0.06173750013113022,0.0695749968290329
1752116321292519200,7.804519287109375,-0.032862499356269836,0.0648999959230423,0.03973750025033951
1752116321302372600,7.81437255859375,-0.023237500339746475,-0.005362499970942736,0.0387750007212162
1752116321312226300,7.824226318359375,-0.017875000834465027,-0.027637500315904617,0.042899999767541885
1752116321322080000,7.834080078125,-0.018975000828504562,0.005362499970942736,0.015262499451637268
1752116321331933700,7.84393359375,-0.018975000828504562,-0.03189999982714653,0.01209999993443489
1752116321341787400,7.853787353515625,-0.018975000828504562,-0.038362499326467514,0.031212499365210533
1752116321351641300,7.863641357421875,-0.02969999983906746,-0.011687500402331352,0.0057749999687075615
1752116321361494800,7.873494873046875,-0.008387500420212746,-0.032999999821186066,0.004674999974668026
1752116321371348700,7.8833486328125,-0.008387500420212746,-0.019112499430775642,0.007837500423192978
1752116321381202400,7.893202392578125,-0.0019249999895691872,0.007424999959766865,-0.0038499999791383743
1752116321391056100,7.90305615234375,0.0193875003606081,-0.015949999913573265,0.010999999940395355
1752116321400909800,7.912909912109375,0.006599999964237213,0.03506249934434891,0.002474999986588955
1752116321410763500,7.922763427734375,0.029975000768899918,-0.0010999999940395355,0.0057749999687075615
1752116321420617200,7.9326171875,0.04592499881982803,0.0042624999769032,0.02914999984204769
1752116321430471000,7.942470947265625,0.04702499881386757,0.02983750030398369,0.02488750033080578
1752116321440324600,7.95232470703125,0.0789249986410141,0.020212499424815178,0.037675000727176666
1752116321450178600,7.962178466796875,0.05224999785423279,0.08621250092983246,0.014162499457597733
1752116321460032000,7.972031982421875,0.07576250284910202,0.009624999947845936,0.016362499445676804
1752116321469886000,7.981885986328125,0.07576250284910202,0.03506249934434891,0.010999999940395355
1752116321479739400,7.991739501953125,0.08208750188350677,0.015949999913573265,0.010999999940395355
1752116321489593300,8.00159326171875,0.08318749815225601,0.009624999947845936,0.01746249943971634
1752116321499447000,8.011447021484376,0.059812501072883606,0.006324999965727329,0.008937500417232513
1752116321509300700,8.02130078125,0.08524999767541885,-0.05115000158548355,0.035475000739097595
1752116321519154400,8.031154541015624,0.056512501090765,-0.02983750030398369,0.028049999848008156
1752116321529008000,8.041008056640624,0.08002500236034393,-0.04468749836087227,0.04936249926686287
1752116321538861800,8.05086181640625,0.03739999979734421,0.01484999991953373,0.025987500324845314
1752116321548715500,8.060715576171875,0.07039999961853027,-0.025575000792741776,0.04399999976158142
1752116321558569200,8.0705693359375,0.040562499314546585,-0.0031624999828636646,0.03973750025033951
1752116321568423000,8.0804228515625,0.056512501090765,-0.025575000792741776,0.06324999779462814
1752116321578276600,8.090276611328125,0.028875000774860382,-0.02241249941289425,0.05678749829530716
1752116321588130600,8.100130615234375,0.035337500274181366,-0.06063750013709068,0.08236250281333923
1752116321597984000,8.10998388671875,0.023512499406933784,-0.09047500044107437,0.10037499666213989
1752116321607838000,8.119837890625,0.031075000762939453,-0.10326249897480011,0.11110000312328339
1752116321617691400,8.12969140625,0.0193875003606081,-0.09363749623298645,0.10147500038146973
1752116321627545300,8.13954541015625,0.021449999883770943,-0.0873124971985817,0.08772499859333038
1752116321637399000,8.14939892578125,0.020349999889731407,-0.09157499670982361,0.08868750184774399
1752116321647252700,8.159252685546875,0.016087500378489494,-0.07136250287294388,0.06104999780654907
1752116321657106400,8.1691064453125,0.016087500378489494,-0.09473749995231628,0.057887498289346695
1752116321666960400,8.17896044921875,0.005499999970197678,-0.09679999947547913,0.050462499260902405
1752116321676813800,8.188813720703125,0.0032999999821186066,-0.11604999750852585,0.05898749828338623
1752116321686667800,8.198667724609376,0.00013749999925494194,-0.11288750171661377,0.06324999779462814
1752116321696521500,8.208521484375,0.00013749999925494194,-0.12773749232292175,0.06641250103712082
1752116321706375000,8.218375,0.01718750037252903,-0.1223749965429306,0.09088750183582306
1752116321716228600,8.228228515625,0.0193875003606081,-0.10752499848604202,0.09088750183582306
1752116321726082600,8.23808251953125,0.031075000762939453,-0.10862500220537186,0.10573749989271164
1752116321735936300,8.247936279296875,0.04166249930858612,-0.0989999994635582,0.11110000312328339
1752116321745790000,8.2577900390625,0.047987498342990875,-0.08195000141859055,0.1046374961733818
1752116321755643600,8.2676435546875,0.057612501084804535,-0.07562500238418579,0.11316250264644623
1752116321765497300,8.277497314453125,0.06187500059604645,-0.08621250092983246,0.10147500038146973
1752116321775351000,8.28735107421875,0.07150000333786011,-0.09473749995231628,0.1036750003695488
1752116321785204700,8.297204833984376,0.07576250284910202,-0.10436250269412994,0.0929500013589859
1752116321795058400,8.307058349609376,0.06077500060200691,-0.10752499848604202,0.07383749634027481
1752116321804912400,8.316912353515624,0.06613750010728836,-0.12031249701976776,0.08236250281333923
1752116321814765800,8.326765869140624,0.05224999785423279,-0.1223749965429306,0.06324999779462814
1752116321824619800,8.336619873046875,0.03629999980330467,-0.11701250076293945,0.06104999780654907
1752116321834473200,8.34647314453125,0.04702499881386757,-0.16183750331401825,0.07590000331401825
1752116321844327200,8.3563271484375,0.025712499395012856,-0.14368750154972076,0.06324999779462814
1752116321854180900,8.366180908203125,0.018287500366568565,-0.15853749215602875,0.07809999585151672
1752116321864034600,8.37603466796875,0.005499999970197678,-0.17352500557899475,0.07493750005960464
1752116321873888300,8.38588818359375,-0.01691249944269657,-0.1288374960422516,0.06104999780654907
1752116321883742000,8.395741943359376,-0.009349999949336052,-0.16499999165534973,0.06847500056028366
1752116321893595600,8.405595703125,-0.015812499448657036,-0.15757499635219574,0.0471624992787838
1752116321903449300,8.415449462890624,-0.01691249944269657,-0.11811249703168869,0.05472499877214432
1752116321913303000,8.425302978515624,-0.0019249999895691872,-0.15001249313354492,0.062150001525878906
1752116321923157000,8.435156982421875,-0.02213750034570694,-0.08195000141859055,0.06104999780654907
1752116321933010400,8.445010498046875,-0.009349999949336052,-0.06806249916553497,0.12815000116825104
1752116321942864400,8.454864501953125,-0.011549999937415123,-0.02447500079870224,0.14409999549388885
1752116321952717800,8.4647177734375,-0.02433750033378601,0.020212499424815178,0.16967499256134033
1752116321962571800,8.47457177734375,-0.0030249999836087227,-0.025575000792741776,0.20899999141693115
1752116321972425500,8.484425537109376,-0.043449997901916504,0.030799999833106995,0.20473749935626984
1752116321982279200,8.494279052734376,-0.07108750194311142,0.015949999913573265,0.2377374917268753
1752116321992132900,8.5041328125,-0.11687500029802322,-0.05431250110268593,0.26221248507499695
1752116322001986600,8.513986572265624,-0.18603749573230743,-0.021312499418854713,0.25575000047683716
1752116322011840300,8.52384033203125,-0.21051250398159027,-0.13626250624656677,0.27073749899864197
1752116322021694000,8.53369384765625,-0.24997499585151672,-0.15001249313354492,0.23980000615119934
1752116322031548000,8.5435478515625,-0.2605625092983246,-0.13626250624656677,0.21752500534057617
1752116322041401600,8.553401611328125,-0.25946250557899475,-0.18205000460147858,0.19304999709129333
1752116322051255300,8.56325537109375,-0.2839374840259552,-0.13089999556541443,0.1504250019788742
1752116322061109000,8.57310888671875,-0.2765125036239624,-0.18521249294281006,0.14506250619888306
1752116322070962700,8.582962646484376,-0.2998875081539154,-0.17132499814033508,0.10257499665021896
1752116322080816400,8.59281640625,-0.30744999647140503,-0.17242500185966492,0.07493750005960464
1752116322090670000,8.602670166015624,-0.2989250123500824,-0.23732499778270721,0.06737499684095383
1752116322100523800,8.612523681640624,-0.31913748383522034,-0.20858749747276306,0.02488750033080578
1752116322110377500,8.62237744140625,-0.3020874857902527,-0.26606249809265137,0.02488750033080578
1752116322120231400,8.6322314453125,-0.28929999470710754,-0.29686251282691956,0.028049999848008156
1752116322130085000,8.642085205078125,-0.2796750068664551,-0.260699987411499,0.03231250122189522
1752116322139938800,8.651938720703125,-0.25423750281333923,-0.30016249418258667,0.05898749828338623
1752116322149792500,8.66179248046875,-0.24667499959468842,-0.24268749356269836,0.05362499877810478
1752116322159646200,8.671646240234375,-0.22756250202655792,-0.20748749375343323,0.07067500054836273
1752116322169500000,8.6815,-0.2116124927997589,-0.16609999537467957,0.06531249731779099
1752116322179353600,8.691353515625,-0.20528750121593475,-0.1106875017285347,0.05472499877214432
1752116322189207300,8.701207275390624,-0.18081249296665192,-0.1340624988079071,0.06847500056028366
1752116322199061000,8.71106103515625,-0.17861250042915344,-0.06063750013709068,0.03657500073313713
1752116322208914700,8.720914794921875,-0.16266250610351562,-0.06393750011920929,0.02914999984204769
1752116322218768400,8.730768310546875,-0.15097500383853912,-0.06283749639987946,0.01952499896287918
1752116322228622300,8.740622314453125,-0.1424500048160553,-0.0031624999828636646,-0.007012499962002039
1752116322238476000,8.75047607421875,-0.12223749607801437,-0.04262499883770943,-0.01347499992698431
1752116322248329700,8.760329833984375,-0.10628750175237656,-0.03189999982714653,-0.03478749841451645
1752116322258183400,8.770183349609376,-0.07108750194311142,-0.021312499418854713,-0.035750001668930054
1752116322268037000,8.780037109375,-0.04138749837875366,-0.011687500402331352,-0.04427500069141388
1752116322277890800,8.789890869140624,-0.021175000816583633,0.027637500315904617,-0.04853750020265579
1752116322287744500,8.79974462890625,0.020349999889731407,0.0010999999940395355,-0.02199999988079071
1752116322297598200,8.80959814453125,0.04386249929666519,0.0424874983727932,-0.022962499409914017
1752116322307452000,8.819451904296875,0.06297499686479568,0.0010999999940395355,-0.0006874999962747097
1752116322317305900,8.829305908203125,0.07466249912977219,-0.030937500298023224,0.010999999940395355
1752116322327159600,8.83915966796875,0.06833750009536743,0,-0.00494999997317791
1752116322337013200,8.84901318359375,0.07672499865293503,-0.04262499883770943,-0.0038499999791383743
1752116322346867000,8.858866943359375,0.0672374963760376,-0.03726249933242798,-0.026262499392032623
1752116322356720600,8.868720703125,0.08744999766349792,-0.0681999996304512,-0.01347499992698431
1752116322366574300,8.87857421875,0.10023749619722366,-0.10862500220537186,-0.024062499403953552
1752116322376428000,8.888427978515624,0.1097249984741211,-0.14368750154972076,-0.01979999989271164
1752116322386282000,8.898281982421874,0.13323749601840973,-0.21821250021457672,0.007837500423192978
1752116322396135400,8.908135498046875,0.12251249700784683,-0.20116250216960907,-0.009212499484419823
1752116322405989000,8.917989013671875,0.13420000672340393,-0.24901250004768372,0.010037500411272049
1752116322415842800,8.9278427734375,0.12677499651908875,-0.2639999985694885,0.016362499445676804
1752116322425696800,8.93769677734375,0.12044999748468399,-0.2330625057220459,0.014162499457597733
1752116322435550200,8.94755029296875,0.11302500218153,-0.2564375102519989,-0.006049999967217445
1752116322445404000,8.95740380859375,0.08744999766349792,-0.2480500042438507,-0.043175000697374344
1752116322455257900,8.9672578125,0.08318749815225601,-0.28737500309944153,-0.030524998903274536
1752116322465111600,8.977111572265626,0.05444999784231186,-0.23416249454021454,-0.05169999971985817
1752116322474965200,8.98696533203125,0.0448249988257885,-0.2703250050544739,-0.03148749843239784
1752116322484819000,8.99681884765625,0.029975000768899918,-0.28517499566078186,-0.025162499397993088
1752116322494672600,9.006672607421875,0.00976249948143959,-0.2554749846458435,-0.017737500369548798
1752116322504526300,9.0165263671875,0.002337499987334013,-0.2788499891757965,0.004674999974668026
1752116322514380000,9.026380126953125,-0.017875000834465027,-0.24268749356269836,0.0035749999806284904
1752116322524234000,9.03623388671875,-0.0147124994546175,-0.24584999680519104,0.035475000739097595
1752116322534087400,9.04608740234375,-0.03382499888539314,-0.1863124966621399,0.01952499896287918
1752116322543941400,9.05594140625,-0.045649997889995575,-0.1872749924659729,0.015262499451637268
1752116322553794800,9.065794921875,-0.05087500065565109,-0.1681624948978424,0.006737499963492155
1752116322563648800,9.075648681640626,-0.06476250290870667,-0.11178749799728394,-0.018699999898672104
1752116322573502500,9.08550244140625,-0.0625625029206276,-0.09363749623298645,-0.037950001657009125
1752116322583356200,9.095356201171874,-0.05939999967813492,-0.04262499883770943,-0.06668750196695328
1752116322593209900,9.1052099609375,-0.04138749837875366,-0.007424999959766865,-0.05169999971985817
1752116322603063600,9.1150634765625,-0.013612499460577965,0.007424999959766865,-0.05073750019073486
1752116322612917200,9.124917236328125,0.016087500378489494,0.018012499436736107,-0.025162499397993088
1752116322622771200,9.134771240234375,0.06297499686479568,0.03189999982714653,0.028049999848008156
1752116322632624600,9.144624755859375,0.08318749815225601,0.11275000125169754,0.02694999985396862
1752116322642478600,9.154478515625,0.12044999748468399,0.12553749978542328,0.037675000727176666
1752116322652332000,9.16433203125,0.14066250622272491,0.14368750154972076,0.035475000739097595
1752116322662186000,9.17418603515625,0.15771250426769257,0.1522125005722046,0.040837500244379044
1752116322672039700,9.184039794921874,0.18535000085830688,0.13626250624656677,0.03451250120997429
1752116322681893400,9.193893310546875,0.19277499616146088,0.1223749965429306,0.025987500324845314
1752116322691747000,9.2037470703125,0.23003749549388885,0.07548750191926956,0.06531249731779099
1752116322701601000,9.21360107421875,0.23966249823570251,0.07232499867677689,0.06421250104904175
1752116322711454500,9.223454345703125,0.258774995803833,0.03189999982714653,0.09088750183582306
1752116322721308200,9.23330810546875,0.2769249975681305,-0.005362499970942736,0.11219999939203262
1752116322731161900,9.243161865234375,0.2778874933719635,0.023375000804662704,0.1036750003695488
1752116322741015800,9.253015869140626,0.29493749141693115,-0.045787498354911804,0.11316250264644623
1752116322750869200,9.262869140625,0.29067498445510864,-0.032999999821186066,0.0929500013589859
1752116322760723200,9.27272314453125,0.2886124849319458,-0.06710000336170197,0.10037499666213989
1752116322770576600,9.28257666015625,0.2704625129699707,-0.0681999996304512,0.08016250282526016
1752116322780430600,9.2924306640625,0.24392500519752502,-0.07026249915361404,0.055687498301267624
1752116322790284000,9.302283935546875,0.23746250569820404,-0.12127500027418137,0.07383749634027481
1752116322800138000,9.312137939453125,0.2172500044107437,-0.09473749995231628,0.07067500054836273
1752116322809991700,9.32199169921875,0.23319999873638153,-0.1288374960422516,0.12594999372959137
1752116322819845400,9.331845458984375,0.2576749920845032,-0.12031249701976776,0.18562500178813934
1752116322829699000,9.341698974609375,0.26413750648498535,-0.06599999964237213,0.227012500166893
1752116322839552800,9.351552734375,0.2778874933719635,-0.05115000158548355,0.24310000240802765
1752116322849406500,9.361406494140626,0.26083749532699585,-0.0031624999828636646,0.19401249289512634
1752116322859260200,9.37126025390625,0.2523125112056732,0.06063750013709068,0.14190000295639038
1752116322869113900,9.38111376953125,0.2320999950170517,0.09679999947547913,0.059950001537799835
1752116322878967600,9.390967529296875,0.20446249842643738,0.14891250431537628,-0.008112499490380287
1752116322888821200,9.4008212890625,0.19071249663829803,0.11591249704360962,-0.025162499397993088
1752116322898675200,9.41067529296875,0.15771250426769257,0.14258749783039093,-0.054999999701976776
1752116322908528600,9.420528564453125,0.1256749927997589,0.1106875017285347,-0.052799999713897705
1752116322918382600,9.430382568359375,0.11935000121593475,0.045787498354911804,-0.03478749841451645
1752116322928236300,9.440236328125,0.08855000138282776,0.08401250094175339,-0.05169999971985817
1752116322938090000,9.450090087890626,0.09281250089406967,0.0085249999538064,-0.03891250118613243
1752116322947943700,9.459943603515624,0.08635000139474869,-0.009624999947845936,-0.05706249922513962
1752116322957797400,9.46979736328125,0.07150000333786011,0.015949999913573265,-0.08373750001192093
1752116322967651000,9.479651123046875,0.08098749816417694,-0.03946249932050705,-0.08373750001192093
1752116322977504800,9.4895048828125,0.06929999589920044,0.0085249999538064,-0.12086249887943268
1752116322987358500,9.4993583984375,0.0906125009059906,0.018012499436736107,-0.09212499856948853
1752116322997212400,9.50921240234375,0.09803749620914459,0.04468749836087227,-0.07301250100135803
1752116323007066000,9.519066162109375,0.08744999766349792,0.09569999575614929,-0.054999999701976776
1752116323016919800,9.528919921875,0.11302500218153,0.06379999965429306,0.008937500417232513
1752116323026773500,9.5387734375,0.10449999570846558,0.10216250270605087,0.023787500336766243
1752116323036627200,9.548627197265626,0.10339999943971634,0.14685000479221344,0.021724998950958252
1752116323046481200,9.558481201171874,0.11302500218153,0.12773749232292175,0.0057749999687075615
1752116323056334600,9.56833447265625,0.07672499865293503,0.18301250040531158,-0.06558749824762344
1752116323066188300,9.578188232421875,0.06187500059604645,0.13832500576972961,-0.10917499661445618
1752116323076042200,9.588042236328125,0.05128749832510948,0.045787498354911804,-0.1293874979019165
1752116323085895700,9.597895751953125,0.02461249940097332,0.03932499885559082,-0.13695000112056732
1752116323095749600,9.60774951171875,0.03959999978542328,-0.02983750030398369,-0.0635249987244606
1752116323105603000,9.61760302734375,0.04592499881982803,-0.04262499883770943,-0.00494999997317791
1752116323115457000,9.62745703125,0.0448249988257885,-0.014987500384449959,0.048262499272823334
1752116323125310500,9.637310546875,0.06613750010728836,-0.011687500402331352,0.10889999568462372
1752116323135164400,9.647164306640626,0.05444999784231186,0.032999999821186066,0.11742500215768814
1752116323145018000,9.65701806640625,0.059812501072883606,0.13942499458789825,0.09088750183582306
1752116323154871800,9.666871826171874,0.07782500237226486,0.14464999735355377,0.04399999976158142
1752116323164725500,9.6767255859375,0.057612501084804535,0.17132499814033508,-0.03684999793767929
1752116323174579500,9.686579345703125,0.05224999785423279,0.13722500205039978,-0.07837499678134918
1752116323184433000,9.696432861328125,0.059812501072883606,0.05101250112056732,-0.10064999759197235
1752116323194286800,9.706286865234375,0.029975000768899918,0.04152499884366989,-0.1443749964237213
1752116323204140300,9.716140380859375,0.011824999935925007,-0.030937500298023224,-0.14643749594688416
1752116323213994200,9.725994140625,-0.021175000816583633,-0.10752499848604202,-0.13791249692440033
1752116323223847700,9.73584765625,-0.053075000643730164,-0.1223749965429306,-0.09858749806880951
1752116323233701600,9.74570166015625,-0.060499999672174454,-0.12347500026226044,0.006737499963492155
1752116323243555300,9.755555419921874,-0.05939999967813492,-0.0648999959230423,0.1153625026345253
1752116323253409000,9.765408935546875,-0.05087500065565109,0.04152499884366989,0.2079000025987625
1752116323263262700,9.7752626953125,-0.03492499887943268,0.13089999556541443,0.2770625054836273
1752116323273116400,9.785116455078125,-0.01691249944269657,0.19263750314712524,0.2994749844074249
1752116323282970000,9.79497021484375,-0.01691249944269657,0.29260000586509705,0.25905001163482666
1752116323292823800,9.80482373046875,-0.0009624999947845936,0.31501248478889465,0.20473749935626984
1752116323302677500,9.814677490234375,-0.01691249944269657,0.29906249046325684,0.09611249715089798
1752116323312531500,9.824531494140626,-0.03492499887943268,0.2149125039577484,-0.026262499392032623
1752116323322385000,9.834385009765626,-0.045649997889995575,0.05843750014901161,-0.12086249887943268
1752116323332238800,9.84423876953125,-0.05623750016093254,-0.09157499670982361,-0.1933249980211258
1752116323342092500,9.854092529296874,-0.07438749819993973,-0.18301250040531158,-0.24227499961853027
1752116323351946200,9.8639462890625,-0.08703749626874924,-0.2512125074863434,-0.2475000023841858
1752116323361800200,9.87380029296875,-0.08923749625682831,-0.3022249937057495,-0.2241249978542328
1752116323371653600,9.883653564453125,-0.10408750176429749,-0.2287999987602234,-0.1816374957561493
1752116323381507600,9.893507568359375,-0.10312499850988388,-0.17668749392032623,-0.10491249710321426
1752116323391361300,9.903361328125,-0.10518749803304672,-0.10532499849796295,-0.026262499392032623
1752116323401214700,9.913214599609375,-0.10944999754428864,0.0085249999538064,0.03231250122189522
1752116323411068700,9.923068603515626,-0.11151249706745148,0.13722500205039978,0.06641250103712082
1752116323420922400,9.93292236328125,-0.1083500012755394,0.22659999132156372,0.07163749635219574
1752116323430776000,9.942776123046874,-0.10628750175237656,0.2798124849796295,0.0471624992787838
1752116323440629800,9.952629638671874,-0.11577499657869339,0.29260000586509705,0.006737499963492155
1752116323450483500,9.9624833984375,-0.09982500225305557,0.2223374992609024,-0.01347499992698431
1752116323460337200,9.972337158203125,-0.06366249918937683,0.09143749624490738,-0.0006874999962747097
1752116323470190800,9.98219091796875,-0.04455000162124634,0.0170499999076128,0.0035749999806284904
1752116323480044800,9.992044921875,-0.012649999931454659,0.0085249999538064,0.014162499457597733
1752116323489898200,10.001898193359375,0.025712499395012856,-0.02447500079870224,0.037675000727176666
1752116323499752200,10.011752197265626,0.03959999978542328,0.0009624999947845936,0.028049999848008156
1752116323509605600,10.021605712890626,0.047987498342990875,0.04358749836683273,-0.00494999997317791
1752116323519459600,10.03145947265625,0.05444999784231186,0.04895000159740448,-0.015537500381469727
1752116323529313300,10.041313232421874,0.057612501084804535,0.011687500402331352,-0.008112499490380287
1752116323539167000,10.0511669921875,0.05335000157356262,-0.0170499999076128,-0.00494999997317791
1752116323549020700,10.061020751953125,0.04386249929666519,-0.02447500079870224,-0.01347499992698431
1752116323558874600,10.07087451171875,0.05335000157356262,-0.057475000619888306,-0.01347499992698431
1752116323568728000,10.08072802734375,0.07356250286102295,-0.07246249914169312,0.002474999986588955
1752116323578582000,10.09058203125,0.06503749638795853,0.013749999925494194,-0.012374999932944775
1752116323588435500,10.100435546875,0.06613750010728836,0.08084999769926071,-0.017737500369548798
1752116323598289400,10.110289306640626,0.0672374963760376,0.09253749996423721,-0.0038499999791383743
1752116323608142800,10.120142822265626,0.050187498331069946,0.11591249704360962,-0.0038499999791383743
1752116323617996800,10.129996826171874,0.012924999929964542,0.15427500009536743,-0.01979999989271164
1752116323627850500,10.1398505859375,-0.036024998873472214,0.17874999344348907,-0.04647500067949295
1752116323637704200,10.1497041015625,-0.0625625029206276,0.11384999752044678,-0.0635249987244606
1752116323647558000,10.159557861328125,-0.09129999577999115,0.06063750013709068,-0.09212499856948853
1752116323657411800,10.169411865234375,-0.1467124968767166,0.08401250094175339,-0.13695000112056732
1752116323667265300,10.179265380859375,-0.1722874939441681,0.01484999991953373,-0.15386250615119934
1752116323677119200,10.189119140625,-0.17008750140666962,-0.0798875018954277,-0.14327499270439148
1752116323686973000,10.198972900390626,-0.15729999542236328,-0.10326249897480011,-0.13474999368190765
1752116323696826600,10.20882666015625,-0.13708749413490295,-0.0681999996304512,-0.12732499837875366
1752116323706680000,10.21868017578125,-0.10092499852180481,-0.023512499406933784,-0.09212499856948853
1752116323716534000,10.228533935546874,-0.057337500154972076,0.02227500081062317,-0.037950001657009125
1752116323726387700,10.2383876953125,-0.02969999983906746,0.08195000141859055,0.014162499457597733
1752116323736241400,10.248241455078125,-0.01691249944269657,0.19043749570846558,0.040837500244379044
1752116323746095000,10.25809521484375,-0.015812499448657036,0.3244999945163727,0.055687498301267624
1752116323755948800,10.26794873046875,-0.027499999850988388,0.427762508392334,0.09941250085830688
1752116323765802500,10.277802490234375,-0.04455000162124634,0.4692874848842621,0.17599999904632568
1752116323775656400,10.287656494140625,-0.0775500014424324,0.4894999861717224,0.2611125111579895
1752116323785510000,10.297510009765626,-0.14781250059604645,0.5395500063896179,0.34306249022483826
1752116323795363800,10.30736376953125,-0.2232999950647354,0.5202999711036682,0.42294999957084656
1752116323805217300,10.31721728515625,-0.27761250734329224,0.4926624894142151,0.4867500066757202
1752116323815071200,10.3270712890625,-0.3063499927520752,0.49156248569488525,0.508062481880188
1752116323824925000,10.336925048828125,-0.3063499927520752,0.558662474155426,0.5132874846458435
1752116323834778600,10.346778564453125,-0.28613749146461487,0.6437749862670898,0.49211248755455017
1752116323844632300,10.35663232421875,-0.23292499780654907,0.6639875173568726,0.4760249853134155
1752116323854486300,10.366486328125,-0.17118750512599945,0.6289250254631042,0.4782249927520752
1752116323864339700,10.376339599609375,-0.12223749607801437,0.5427125096321106,0.4665375053882599
1752116323874193700,10.386193603515625,-0.10312499850988388,0.4670875072479248,0.4474250078201294
1752116323884047000,10.396047119140626,-0.10518749803304672,0.40755000710487366,0.41442498564720154
1752116323893901000,10.405901123046876,-0.1200374960899353,0.34154999256134033,0.36121249198913574
1752116323903754500,10.41575439453125,-0.1467124968767166,0.3022249937057495,0.2750000059604645
1752116323913608400,10.4256083984375,-0.16802500188350677,0.2777499854564667,0.15468749403953552
1752116323923462100,10.435462158203125,-0.17434999346733093,0.24255000054836273,0.02694999985396862
1752116323933315800,10.44531591796875,-0.18287499248981476,0.1872749924659729,-0.0943249985575676
1752116323943169500,10.45516943359375,-0.17544999718666077,0.10848750174045563,-0.18796250224113464
1752116323953023200,10.465023193359375,-0.16060000658035278,-0.040424998849630356,-0.2475000023841858
1752116323962877000,10.474876953125,-0.1381874978542328,-0.15441249310970306,-0.3092375099658966
1752116323972731000,10.48473095703125,-0.13392500579357147,-0.15963749587535858,-0.4232249855995178
1752116323982584300,10.494584228515626,-0.1200374960899353,-0.22247499227523804,-0.5359749794006348
1752116323992438000,10.50443798828125,-0.08923749625682831,-0.4129124879837036,-0.6392375230789185
1752116324002291700,10.514291748046874,-0.09556250274181366,-0.5172749757766724,-0.7913125157356262
1752116324012145400,10.5241455078125,-0.1200374960899353,-0.5970249772071838,-0.9552124738693237
1752116324021999400,10.533999267578125,-0.1190750002861023,-0.7310875058174133,-1.0903749465942383
1752116324031853000,10.54385302734375,-0.10518749803304672,-0.8567624688148499,-1.210687518119812
1752116324041706800,10.553706787109375,-0.09459999948740005,-0.9227625131607056,-1.3554749488830566
1752116324051560400,10.563560546875,-0.07328750193119049,-0.993987500667572,-1.4235374927520752
1752116324061414100,10.5734140625,-0.053075000643730164,-1.0301499366760254,-1.3629000186920166
1752116324071267800,10.583267822265626,-0.025437500327825546,-0.947237491607666,-1.2053250074386597
1752116324081121500,10.59312158203125,-0.057337500154972076,-0.7481374740600586,-1.018049955368042
1752116324090975200,10.602975341796874,-0.05939999967813492,-0.6524375081062317,-0.8786249756813049
1752116324100829000,10.612828857421874,-0.05939999967813492,-0.6226000189781189,-0.8680375218391418
1752116324110682600,10.6226826171875,-0.0849749967455864,-0.5289624929428101,-0.8606125116348267
1752116324120536300,10.632536376953125,-0.05843750014901161,-0.4618625044822693,-0.7136250138282776
1752116324130390300,10.642390380859375,0.002337499987334013,-0.3746874928474426,-0.3848625123500824
1752116324140244000,10.652243896484375,0.031075000762939453,-0.07452499866485596,0.07273750007152557
1752116324150097700,10.66209765625,0.0672374963760376,0.3543374836444855,0.5612750053405762
1752116324159951400,10.671951416015625,0.07782500237226486,0.7385125160217285,0.8837124705314636
1752116324169805300,10.681805419921876,-0.005224999971687794,1.1024750471115112,1.0177749395370483
1752116324179658800,10.69165869140625,-0.08387500047683716,1.3472249507904053,1.0815750360488892
1752116324189512700,10.7015126953125,-0.12333749979734421,1.4163874387741089,1.169987440109253
1752116324199366100,10.7113662109375,-0.2073500007390976,1.3781625032424927,1.2508374452590942
1752116324209220000,10.72122021484375,-0.29782500863075256,1.1226874589920044,1.2571624517440796
1752116324219073500,10.731073486328125,-0.37757501006126404,0.9044749736785889,1.1996874809265137
1752116324228927500,10.740927490234375,-0.4244624972343445,0.9066749811172485,1.029462456703186
1752116324238781200,10.75078125,-0.4244624972343445,0.9459999799728394,0.7581750154495239
1752116324248635000,10.760634765625,-0.43078750371932983,0.9087374806404114,0.4175874888896942
1752116324258488600,10.770488525390626,-0.45210000872612,0.7853999733924866,0.13337500393390656
1752116324268342300,10.78034228515625,-0.4212999939918518,0.4405499994754791,-0.02722499892115593
1752116324278196000,10.790196044921874,-0.42336249351501465,0.12773749232292175,-0.15496249496936798
1752116324288050000,10.8000498046875,-0.391462504863739,-0.16609999537467957,-0.2092749923467636
1752116324297903400,10.8099033203125,-0.322299987077713,-0.4129124879837036,-0.2699125111103058
1752116324307757300,10.81975732421875,-0.2232999950647354,-0.5224999785423279,-0.37207499146461487
1752116324317611000,10.829611083984375,-0.07108750194311142,-0.650237500667572,-0.4497624933719635
1752116324327464700,10.839464599609375,0.04166249930858612,-0.716237485408783,-0.5359749794006348
1752116324337318400,10.849318359375,0.1480875015258789,-0.8716124892234802,-0.5997750163078308
1752116324347172000,10.859172119140625,0.20982499420642853,-1.0280874967575073,-0.6242499947547913
1752116324357026000,10.869026123046876,0.24392500519752502,-1.2387374639511108,-0.5157625079154968
1752116324366879700,10.878879638671876,0.26936250925064087,-1.2930500507354736,-0.2784374952316284
1752116324376733200,10.888733154296874,0.35241249203681946,-1.1493624448776245,0.10037499666213989
1752116324386587100,10.898587158203124,0.42157500982284546,-0.8311874866485596,0.4526500105857849
1752116324396440800,10.90844091796875,0.4258374869823456,-0.49486249685287476,0.6612374782562256
1752116324406294500,10.91829443359375,0.37798750400543213,-0.28421249985694885,0.7006999850273132
1752116324416148000,10.92814794921875,0.2971374988555908,-0.1905750036239624,0.6272749900817871
1752116324426002000,10.938001953125,0.2513499855995178,-0.19373749196529388,0.5399624705314636
1752116324435855600,10.947855712890625,0.22261250019073486,-0.1979999989271164,0.4856500029563904
1752116324445709600,10.95770947265625,0.23003749549388885,-0.15331250429153442,0.47079998254776
1752116324455563300,10.967563232421876,0.23746250569820404,-0.03189999982714653,0.4622749984264374
1752116324465417000,10.9774169921875,0.22261250019073486,0.06599999964237213,0.45058751106262207
1752116324475270400,10.9872705078125,0.1896124929189682,0.07548750191926956,0.4324375092983246
1752116324485124400,10.997124267578124,0.13956250250339508,0.05101250112056732,0.37070000171661377
1752116324494978000,11.00697802734375,0.0906125009059906,0.019112499430775642,0.2451625019311905
1752116324504831700,11.016831787109375,0.04386249929666519,-0.0648999959230423,0.07590000331401825
1752116324514685400,11.026685546875,0.004399999976158142,-0.17242500185966492,-0.06764999777078629
1752116324524539100,11.0365390625,-0.01691249944269657,-0.25753748416900635,-0.16885000467300415
1752116324534392800,11.046392822265625,-0.04028749838471413,-0.2628999948501587,-0.24860000610351562
1752116324544246800,11.056246826171876,-0.06792499870061874,-0.29163751006126404,-0.3082749843597412
1752116324554100500,11.0661005859375,-0.10628750175237656,-0.29163751006126404,-0.36355000734329224
1752116324563954200,11.0759541015625,-0.13928750157356262,-0.32243749499320984,-0.39765000343322754
1752116324573807900,11.085807861328124,-0.1775124967098236,-0.2862749993801117,-0.44440001249313354
1752116324583661600,11.09566162109375,-0.20418749749660492,-0.2947999835014343,-0.44123750925064087
1752116324593515500,11.105515625,-0.2457125037908554,-0.2820124924182892,-0.4221250116825104
1752116324603369000,11.115368896484375,-0.24034999310970306,-0.2586374878883362,-0.370012491941452
1752116324613223000,11.125222900390625,-0.21697500348091125,-0.18205000460147858,-0.3433375060558319
1752116324623076600,11.13507666015625,-0.15207499265670776,-0.23100000619888306,-0.3049750030040741
1752116324632930300,11.144930419921875,-0.08923749625682831,-0.2437874972820282,-0.27623748779296875
1752116324642784000,11.154783935546876,-0.0147124994546175,-0.22027499973773956,-0.21986250579357147
1752116324652637700,11.1646376953125,0.02461249940097332,-0.11495000123977661,-0.17833749949932098
1752116324662491400,11.174491455078124,0.05555000156164169,-0.1447875052690506,-0.08896250277757645
1752116324672345300,11.184345458984374,0.0789249986410141,-0.20858749747276306,-0.006049999967217445
1752116324682198800,11.19419873046875,0.1097249984741211,-0.14258749783039093,0.05472499877214432
1752116324692052700,11.204052734375,0.11192499846220016,0.002062499988824129,0.018424998968839645
1752116324701906200,11.21390625,0.09281250089406967,0.09363749623298645,-0.0719124972820282
1752116324711760100,11.223760009765625,0.07672499865293503,0.10958749800920486,-0.15386250615119934
1752116324721613800,11.23361376953125,0.05128749832510948,0.15853749215602875,-0.19016249477863312
1752116324731467500,11.243467529296876,0.002337499987334013,0.17448750138282776,-0.21986250579357147
1752116324741321200,11.2533212890625,-0.05197500064969063,0.10326249897480011,-0.2050125002861023
1752116324751175200,11.263175048828124,-0.09886249899864197,-0.038362499326467514,-0.16664999723434448
1752116324761028600,11.273028564453124,-0.13282500207424164,-0.10532499849796295,-0.1284250020980835
1752116324770882600,11.282882568359375,-0.1467124968767166,-0.15757499635219574,-0.08689999580383301
1752116324780736300,11.292736328125,-0.17008750140666962,-0.1373624950647354,-0.07095000147819519
1752116324790590000,11.30258984375,-0.1615625023841858,-0.2096875011920929,-0.06132499873638153
1752116324800443600,11.312443603515625,-0.1467124968767166,-0.2532750070095062,-0.08373750001192093
1752116324810297300,11.32229736328125,-0.0668250024318695,-0.2927374839782715,-0.017737500369548798
1752116324820151000,11.332151123046875,-0.012649999931454659,-0.16279999911785126,0.055687498301267624
1752116324830005000,11.3420048828125,0.047987498342990875,-0.02667500078678131,0.1504250019788742
1752116324839858700,11.351858642578126,0.0906125009059906,0.08084999769926071,0.22288750112056732
1752116324849712400,11.36171240234375,0.12361250072717667,0.10958749800920486,0.29205000400543213
1752116324859566000,11.371566162109374,0.14602500200271606,0.06806249916553497,0.3367374837398529
1752116324869419800,11.381419677734375,0.13323749601840973,0.0765874981880188,0.34732499718666077
1752116324879273500,11.3912734375,0.14492499828338623,0.01484999991953373,0.33563750982284546
1752116324889127200,11.401127197265625,0.1438249945640564,-0.02241249941289425,0.30373749136924744
1752116324898981000,11.410981201171875,0.18108749389648438,-0.08084999769926071,0.2824249863624573
1752116324908834800,11.420834716796875,0.19277499616146088,-0.055412501096725464,0.22068749368190765
1752116324918688500,11.4306884765625,0.21188749372959137,-0.0798875018954277,0.18768750131130219
1752116324928542200,11.440542236328126,0.2087250053882599,-0.08937499672174454,0.17379999160766602
1752116324938396000,11.45039599609375,0.19923749566078186,-0.04688749834895134,0.20473749935626984
1752116324948249600,11.46024951171875,0.20019999146461487,-0.04688749834895134,0.23553749918937683
1752116324958103600,11.470103515625,0.16513749957084656,-0.05857500061392784,0.27816250920295715
1752116324967957000,11.47995703125,0.12155000120401382,-0.10216250270605087,0.3250499963760376
1752116324977811000,11.48981103515625,0.06187500059604645,-0.07136250287294388,0.317487508058548
1752116324987664600,11.49966455078125,0.04908749833703041,-0.09679999947547913,0.31226250529289246
1752116324997518300,11.509518310546875,0.06077500060200691,-0.10642500221729279,0.2770625054836273
1752116325007372000,11.5193720703125,0.11508750170469284,-0.07232499867677689,0.2611125111579895
1752116325017225700,11.529225830078126,0.16830000281333923,0.006324999965727329,0.2217874974012375
1752116325027079700,11.53907958984375,0.23003749549388885,0.028737500309944153,0.1919499933719635
1752116325036933400,11.548933349609374,0.28751251101493835,0.07136250287294388,0.16005000472068787
1752116325046786800,11.558786865234374,0.29919999837875366,0.1574375033378601,0.10257499665021896
1752116325056640800,11.568640869140625,0.2928749918937683,0.15427500009536743,0.05362499877810478
1752116325066494500,11.578494384765625,0.24488750100135803,0.07342500239610672,-0.017737500369548798
1752116325076348200,11.58834814453125,0.1821874976158142,-0.006324999965727329,-0.05596249923110008
1752116325086201900,11.598201904296875,0.11508750170469284,-0.057475000619888306,-0.12196250259876251
1752116325096055800,11.608055908203125,0.06613750010728836,-0.08195000141859055,-0.17311249673366547
1752116325105909200,11.6179091796875,0.05335000157356262,-0.08084999769926071,-0.17407499253749847
1752116325115763000,11.627762939453126,0.01718750037252903,-0.03189999982714653,-0.19965000450611115
1752116325125616600,11.63761669921875,0.005499999970197678,-0.019112499430775642,-0.19648750126361847
1752116325135470600,11.647470703125,-0.025437500327825546,-0.019112499430775642,-0.19965000450611115
1752116325145324300,11.65732421875,-0.04235000163316727,0.007424999959766865,-0.18906250596046448
1752116325155178000,11.667177978515625,-0.05087500065565109,0.04262499883770943,-0.2050125002861023
1752116325165031700,11.67703173828125,-0.06476250290870667,0.09253749996423721,-0.2593249976634979
1752116325174885600,11.6868857421875,-0.036024998873472214,0.03932499885559082,-0.29218751192092896
1752116325184739000,11.696739013671875,-0.045649997889995575,0.01484999991953373,-0.31459999084472656
1752116325194593000,11.706593017578125,-0.020075000822544098,-0.038362499326467514,-0.2560249865055084
1752116325204446500,11.716446533203126,-0.03492499887943268,-0.010587500408291817,-0.17833749949932098
1752116325214300400,11.726300537109376,-0.026399999856948853,0.04152499884366989,-0.09638749808073044
1752116325224153900,11.73615380859375,-0.047712501138448715,0.11178749799728394,-0.07727500051259995
1752116325234007800,11.7460078125,-0.07012499868869781,0.17448750138282776,-0.10284999758005142
1752116325243861500,11.755861572265625,-0.11055000126361847,0.22343750298023224,-0.13474999368190765
1752116325253715500,11.765715576171875,-0.1775124967098236,0.25753748416900635,-0.18906250596046448
1752116325263569000,11.77556884765625,-0.20308749377727509,0.15963749587535858,-0.1933249980211258
1752116325273422800,11.7854228515625,-0.17861250042915344,-0.013887500390410423,-0.14643749594688416
1752116325283276500,11.795276611328125,-0.15523749589920044,-0.11178749799728394,-0.05816249921917915
1752116325293130000,11.8051298828125,-0.1073874980211258,-0.21285000443458557,0.055687498301267624
1752116325302984000,11.81498388671875,-0.05197500064969063,-0.2554749846458435,0.12484999746084213
1752116325312837600,11.824837646484376,0.03739999979734421,-0.23842500150203705,0.17599999904632568
1752116325322691300,11.83469140625,0.11082500219345093,-0.10106249898672104,0.18342499434947968
1752116325332545000,11.844544921875,0.15344999730587006,0.07452499866485596,0.15895000100135803
1752116325342398700,11.854398681640625,0.20446249842643738,0.13516250252723694,0.16967499256134033
1752116325352252700,11.864252685546875,0.20762500166893005,0.18521249294281006,0.196212500333786
1752116325362106000,11.874106201171875,0.2237125039100647,0.11604999750852585,0.2835249900817871
1752116325371960000,11.8839599609375,0.21615000069141388,0.038362499326467514,0.3367374837398529
1752116325381813500,11.8938134765625,0.19277499616146088,-0.0042624999769032,0.3515875041484833
1752116325391667500,11.90366748046875,0.2012999951839447,-0.09253749996423721,0.3441624939441681
1752116325401521200,11.913521240234376,0.20336249470710754,-0.11921250075101852,0.27390000224113464
1752116325411374800,11.923374755859374,0.20666250586509705,-0.0765874981880188,0.19415000081062317
1752116325421228500,11.933228515625,0.20446249842643738,-0.0798875018954277,0.12911249697208405
1752116325431082500,11.94308251953125,0.17682500183582306,-0.06916250288486481,0.08552499860525131
1752116325440936000,11.95293603515625,0.18645000457763672,-0.13199999928474426,0.11742500215768814
1752116325450790000,11.962789794921875,0.15441249310970306,-0.11384999752044678,0.1270499974489212
1752116325460643600,11.9726435546875,0.13750000298023224,-0.05004999786615372,0.14726249873638153
1752116325470497300,11.982497314453125,0.14602500200271606,0.055275000631809235,0.14300000667572021
1752116325480351000,11.99235107421875,0.12787500023841858,0.2096875011920929,0.06641250103712082
1752116325490204700,12.00220458984375,0.10656250268220901,0.21917499601840973,-0.017737500369548798
1752116325500058400,12.012058349609376,0.04166249930858612,0.12773749232292175,-0.10821250081062317
1752116325509912300,12.021912353515624,-0.04028749838471413,0.15853749215602875,-0.17833749949932098
1752116325519766000,12.03176611328125,-0.08181250095367432,0.06806249916553497,-0.1859000027179718
1752116325529619700,12.04161962890625,-0.12113749980926514,0.010587500408291817,-0.20817500352859497
1752116325539473700,12.0514736328125,-0.14024999737739563,-0.040424998849630356,-0.22302499413490295
1752116325549327000,12.0613271484375,-0.13186250627040863,-0.09583749622106552,-0.26028749346733093
1752116325559180800,12.071180908203125,-0.1467124968767166,-0.027637500315904617,-0.3188624978065491
1752116325569034500,12.081034423828125,-0.10944999754428864,-0.0340999998152256,-0.3082749843597412
1752116325578888200,12.09088818359375,-0.11797499656677246,-0.07026249915361404,-0.3125374913215637
1752116325588742000,12.100741943359376,-0.14135000109672546,-0.10958749800920486,-0.28806251287460327
1752116325598595800,12.110595947265624,-0.1083500012755394,-0.19263750314712524,-0.18369999527931213
1752116325608449500,12.120449462890624,-0.10312499850988388,-0.0873124971985817,-0.10917499661445618
1752116325618303200,12.13030322265625,-0.08181250095367432,0.010587500408291817,-0.04743750020861626
1752116325628157000,12.140156982421875,-0.053075000643730164,0.030799999833106995,-0.018699999898672104
1752116325638010600,12.1500107421875,-0.05623750016093254,0.09679999947547913,-0.08153750002384186
1752116325647864300,12.1598642578125,-0.04028749838471413,0.07232499867677689,-0.10917499661445618
1752116325657718000,12.169718017578125,-0.023237500339746475,-0.04262499883770943,-0.08579999953508377
1752116325667572000,12.179572021484375,-0.04661250114440918,0.0031624999828636646,-0.0826374962925911
1752116325677425700,12.18942578125,-0.010449999943375587,-0.06173750013113022,-0.01347499992698431
1752116325687279400,12.199279296875,0.008662499487400055,-0.0989999994635582,0.059950001537799835
1752116325697133300,12.20913330078125,0.0448249988257885,-0.027637500315904617,0.12278749793767929
1752116325706986800,12.21898681640625,0.0789249986410141,-0.03506249934434891,0.19415000081062317
1752116325716840400,12.22884033203125,0.0789249986410141,0.03932499885559082,0.19304999709129333
1752116325726694100,12.238694091796875,0.047987498342990875,0.17022499442100525,0.13763749599456787
1752116325736548000,12.248548095703125,0.06503749638795853,0.09473749995231628,0.08868750184774399
1752116325746401500,12.258401611328125,0.03629999980330467,0.1297999918460846,0.020624998956918716
