time,seconds_elapsed,z,y,x
1752116313557404200,0.069404052734375,10.146000862121582,4.017000198364258,0.49995002150535583
1752116313567257900,0.0792578125,10.495050430297852,3.283950090408325,0.7540500164031982
1752116313577083000,0.089082763671875,10.476000785827637,2.329050064086914,1.3069500923156738
1752116313586964700,0.09896484375,9.822000503540039,1.5220500230789185,2.1060001850128174
1752116313596818400,0.108818359375,9.358050346374512,1.4449501037597656,2.9419500827789307
1752116313606672100,0.118672119140625,8.716050148010254,0.9930000305175781,3.6480002403259277
1752116313616525300,0.128525390625,7.5859503746032715,-0.25394999980926514,3.687000274658203
1752116313626379000,0.13837890625,6.054000377655029,-0.43605002760887146,2.9250001907348633
1752116313636232400,0.148232421875,4.183950424194336,0.6240000128746033,2.182950019836426
1752116313646086000,0.1580859375,2.9220001697540283,1.6819500923156738,1.5289500951766968
1752116313655939600,0.167939697265625,1.990950107574463,5.251950263977051,1.585050106048584
1752116313665793000,0.17779296875,2.179949998855591,7.680000305175781,1.5679501295089722
1752116313675646500,0.187646484375,2.5990500450134277,6.684000492095947,0.7510500550270081
1752116313685500400,0.19750048828125,5.467050075531006,4.090950012207031,-0.6790500283241272
1752116313695353900,0.207353759765625,11.427000999450684,2.8560001850128174,-1.0669500827789307
1752116313705207300,0.217207275390625,14.910000801086426,2.2159500122070312,-0.7350000143051147
1752116313715061000,0.22706103515625,16.797000885009766,2.6830501556396484,-0.16005000472068787
1752116313724914400,0.23691455078125,17.023950576782227,3.4710001945495605,0.11700000613927841
1752116313734768000,0.24676806640625,14.866950988769531,4.1509504318237305,0.8590500354766846
1752116313744621600,0.25662158203125,9.504000663757324,4.693950176239014,2.638050079345703
1752116313754475300,0.266475341796875,3.7699501514434814,4.900050163269043,5.775000095367432
1752116313764328700,0.27632861328125,1.3990501165390015,3.9280502796173096,5.928000450134277
1752116313774182100,0.28618212890625,10.129050254821777,1.714050054550171,4.774050235748291
1752116313848081200,0.3600810546875,6.3319501876831055,4.993950366973877,3.0930001735687256
1752116313857934600,0.3699345703125,6.787050247192383,4.153050422668457,0.7369500398635864
1752116313867788300,0.379788330078125,7.107000350952148,3.676950216293335,-1.5510001182556152
1752116313877642000,0.38964208984375,7.258050441741943,3.454050064086914,-2.5879502296447754
1752116313887495400,0.399495361328125,6.970950126647949,2.5420501232147217,-1.7569501399993896
1752116313897349000,0.40934912109375,10.593000411987305,1.1050500869750977,-0.08595000207424164
1752116313907202600,0.41920263671875,17.72100067138672,0.30300000309944153,2.197050094604492
1752116313917056300,0.42905615234375,17.862001419067383,1.0720500946044922,2.8320000171661377
1752116313926909700,0.43890966796875,16.435951232910156,1.5340501070022583,1.1850000619888306
1752116313936763100,0.44876318359375,15.13800048828125,1.4620500802993774,-0.6510000228881836
1752116313946616800,0.458616943359375,13.383000373840332,1.9549500942230225,-1.8619500398635864
1752116313956470500,0.468470458984375,11.869950294494629,2.401050090789795,-2.1280500888824463
1752116313966323700,0.47832373046875,10.669950485229492,2.4940500259399414,-1.8570001125335693
1752116313976177400,0.488177490234375,9.910950660705566,2.4820501804351807,-1.6009501218795776
1752116313986030800,0.49803076171875,10.050000190734863,2.63100004196167,-1.429050087928772
1752116313995884300,0.50788427734375,10.201050758361816,3.166950225830078,-1.6230000257492065
1752116314005738200,0.51773828125,10.015950202941895,3.574050188064575,-2.0850000381469727
1752116314015591700,0.527591796875,9.66195011138916,3.646050214767456,-2.571000099182129
1752116314025445400,0.5374453125,9.070950508117676,3.595050096511841,-2.76705002784729
1752116314035298800,0.547298828125,8.221050262451172,3.7270500659942627,-2.593050241470337
1752116314045152300,0.55715234375,7.972050189971924,3.9760501384735107,-2.332050085067749
1752116314055006000,0.567005859375,7.63200044631958,4.153050422668457,-2.4079501628875732
1752116314064859400,0.576859375,7.684050559997559,4.218000411987305,-2.284050226211548
1752116314074712800,0.586712890625,8.12700080871582,4.144050121307373,-2.061000108718872
1752116314084566500,0.59656640625,8.569950103759766,3.9400501251220703,-1.8019500970840454
1752116314094420200,0.606420166015625,9.70305061340332,3.2599501609802246,-1.8769501447677612
1752116314104273700,0.616273681640625,10.479000091552734,2.5249500274658203,-2.0749499797821045
1752116314114127400,0.62612744140625,10.570050239562988,2.994000196456909,-1.7899501323699951
1752116314123981000,0.63598095703125,9.766950607299805,3.223950147628784,-1.6440000534057617
1752116314133834500,0.64583447265625,9.520950317382812,3.175950050354004,-1.5460500717163086
1752116314143688000,0.65568798828125,9.48705005645752,3.355950117111206,-1.2780001163482666
1752116314153541600,0.665541748046875,8.779050827026367,3.559950113296509,-1.2330000400543213
1752116314163395000,0.67539501953125,8.224950790405273,3.555000066757202,-1.429050087928772
1752116314173248800,0.685248779296875,7.72005033493042,3.258000135421753,-1.8310500383377075
1752116314183102200,0.695102294921875,7.371000289916992,3.0210001468658447,-1.4119501113891602
1752116314192956000,0.704955810546875,7.72005033493042,3.016050100326538,-1.1440500020980835
1752116314202809300,0.714809326171875,8.944050788879395,2.968050241470337,-1.6180500984191895
1752116314212663000,0.7246630859375,9.565950393676758,3.058950185775757,-2.0710501670837402
1752116314222516700,0.734516845703125,9.909000396728516,3.088050127029419,-2.332050085067749
1752116314232370200,0.7443701171875,10.540950775146484,3.106950044631958,-2.038950204849243
1752116314242223900,0.754223876953125,10.24905014038086,3.6030001640319824,-2.0269501209259033
1752116314252077300,0.764077392578125,9.502050399780273,3.8970000743865967,-2.707050085067749
1752116314261930800,0.7739306640625,9.22605037689209,3.765000104904175,-2.5350000858306885
1752116314271784400,0.783784423828125,9.097050666809082,3.8010001182556152,-2.0560500621795654
1752116314281638000,0.793637939453125,8.96505069732666,3.7800002098083496,-1.9560000896453857
1752116314291491600,0.80349169921875,8.806950569152832,3.8520002365112305,-1.9410001039505005
1752116314301345300,0.81334521484375,9.444000244140625,3.567000150680542,-1.6350001096725464
1752116314311198700,0.82319873046875,10.081050872802734,3.2910001277923584,-1.3260000944137573
1752116314321052400,0.833052490234375,10.327950477600098,3.2719502449035645,-1.6470000743865967
1752116314330905900,0.84290576171875,10.015950202941895,3.315000057220459,-1.5150001049041748
1752116314340759600,0.852759521484375,9.063000679016113,3.7680001258850098,-1.3120501041412354
1752116314350613000,0.862613037109375,8.452950477600098,4.582050323486328,-2.2170000076293945
1752116314360466700,0.872466796875,8.414999961853027,5.161050319671631,-3.019050121307373
1752116314370320100,0.882320068359375,8.824049949645996,4.90500020980835,-2.628000020980835
1752116314380173800,0.892173828125,9.17805004119873,4.393050193786621,-1.8409501314163208
1752116314390027500,0.902027587890625,9.343950271606445,4.138950347900391,-1.3260000944137573
1752116314399881000,0.911880859375,8.677950859069824,3.9160501956939697,-1.38795006275177
1752116314409734700,0.921734619140625,7.432950496673584,3.9810001850128174,-1.1059499979019165
1752116314419588000,0.931588134765625,6.403050422668457,4.504950046539307,-1.194000005722046
1752116314429441800,0.94144189453125,5.958000183105469,4.82895040512085,-1.7809500694274902
1752116314439295200,0.951295166015625,6.573000431060791,4.4569501876831055,-2.8150501251220703
1752116314449148700,0.961148681640625,8.05305004119873,4.01894998550415,-3.8179502487182617
1752116314459002400,0.97100244140625,9.643050193786621,3.6409502029418945,-3.5310001373291016
1752116314468856000,0.98085595703125,9.916050910949707,2.9440500736236572,-2.410950183868408
1752116314478709500,0.99070947265625,9.384000778198242,2.7430500984191895,-1.527000069618225
1752116314488563200,1.000563232421875,9.010950088500977,3.475950241088867,-1.29705011844635
1752116314498416600,1.010416748046875,8.05305004119873,3.90405011177063,-1.5649501085281372
1752116314508270300,1.020270263671875,7.7440505027771,3.982950210571289,-1.9030500650405884
1752116314518123800,1.030123779296875,8.086950302124023,4.189050197601318,-2.332050085067749
1752116314527977500,1.0399775390625,8.395050048828125,4.069950103759766,-2.379000186920166
1752116314537831200,1.0498310546875,8.592000007629395,3.7579500675201416,-2.1469500064849854
1752116314547684600,1.0596845703125,8.824049949645996,3.469050168991089,-2.101950168609619
1752116314557538300,1.069538330078125,8.88900089263916,3.390000104904175,-2.1379501819610596
1752116314567391700,1.079391845703125,8.893950462341309,3.6720001697540283,-2.3749501705169678
1752116314577245400,1.089245361328125,9.127950668334961,3.664950132369995,-2.473050117492676
1752116314587099100,1.09909912109375,9.600000381469727,3.3990001678466797,-2.200050115585327
1752116314596952600,1.10895263671875,9.882000923156738,3.1020002365112305,-1.8220500946044922
1752116314606806000,1.118805908203125,9.94005012512207,2.857950210571289,-1.5370501279830933
1752116314616659700,1.12865966796875,10.030950546264648,2.896050214767456,-1.6009501218795776
1752116314626513400,1.138513427734375,10.015950202941895,3.1600501537323,-2.0269501209259033
1752116314636366800,1.148366943359375,9.619050025939941,3.2820000648498535,-2.3340001106262207
1752116314646220500,1.158220458984375,8.668050765991211,3.58305025100708,-2.559000015258789
1752116314656074000,1.168073974609375,8.130000114440918,4.254000186920166,-2.842050075531006
1752116314665927700,1.177927734375,7.711050510406494,4.171950340270996,-2.82705020904541
1752116314675781400,1.187781494140625,7.557000160217285,3.744000196456909,-2.6140501499176025
1752116314705344800,1.2173447265625,8.484000205993652,2.4049501419067383,-2.302950143814087
1752116314715198200,1.2271982421875,8.854949951171875,2.281050205230713,-1.9699500799179077
1752116314725052000,1.237052001953125,9.118950843811035,2.5660500526428223,-1.8310500383377075
1752116314734905600,1.246905517578125,9.346050262451172,2.797950029373169,-1.8379501104354858
1752116314744759300,1.25675927734375,9.265050888061523,2.7340500354766846,-1.8720000982284546
1752116314754612700,1.26661279296875,8.797950744628906,2.620950222015381,-2.419950008392334
1752116314764466200,1.276466064453125,8.203949928283691,2.650050163269043,-3.1410000324249268
1752116314774319900,1.28631982421875,9.372000694274902,2.3430001735687256,-3.724950075149536
1752116314784173300,1.29617333984375,9.061050415039062,1.7929500341415405,-3.8899502754211426
1752116314794026800,1.30602685546875,6.760050296783447,1.8840000629425049,-2.080049991607666
1752116314803880700,1.315880615234375,7.081050395965576,1.8360000848770142,-1.1440500020980835
1752116314813734100,1.325734130859375,8.625,2.281050205230713,-0.4830000102519989
1752116314823587600,1.335587646484375,9.712050437927246,2.4409501552581787,0.7300500273704529
1752116314833441300,1.345441162109375,10.431000709533691,2.179949998855591,1.8550500869750977
1752116314843294700,1.355294677734375,10.420950889587402,2.1880500316619873,2.180999994277954
1752116314853148400,1.3651484375,10.669950485229492,1.9459501504898071,0.9930000305175781
1752116314863002000,1.375002197265625,10.315950393676758,1.3210500478744507,-1.2829500436782837
1752116314872855800,1.384855712890625,9.304950714111328,0.9949500560760498,-1.7620500326156616
1752116314882709200,1.394709228515625,8.628000259399414,0.6310500502586365,-0.7609500288963318
1752116314892563000,1.40456298828125,8.434050559997559,0.3850500285625458,-1.204050064086914
1752116314902416400,1.41441650390625,7.813950538635254,0.46095001697540283,-1.4220000505447388
1752116314912269800,1.424269775390625,7.725000381469727,1.0960500240325928,-1.2540000677108765
1752116314922123800,1.434123779296875,5.125050067901611,2.3479502201080322,-0.11700000613927841
1752116314931977200,1.443977294921875,1.327950119972229,4.2870001792907715,3.118950128555298
1752116314941831000,1.453830810546875,6.106950283050537,5.073000431060791,4.450050354003906
1752116314951684600,1.4636845703125,10.7160005569458,4.759050369262695,4.039050102233887
1752116314961538000,1.4735380859375,7.207950115203857,4.723050117492676,4.087049961090088
1752116314971391700,1.483391845703125,1.0690500736236572,4.708950042724609,5.772000312805176
1752116314981245200,1.4932451171875,5.740050315856934,5.149050235748291,5.202000141143799
1752116314991099000,1.503098876953125,8.695050239562988,5.013000011444092,4.477050304412842
1752116315000952600,1.51295263671875,7.684050559997559,3.934950113296509,3.6529502868652344
1752116315010806300,1.52280615234375,4.726950168609619,2.829000234603882,3.7420501708984375
1752116315020659500,1.532659423828125,5.263950347900391,2.2980000972747803,4.000050067901611
1752116315030513400,1.542513427734375,5.139000415802002,1.3399500846862793,5.09505033493042
1752116315040366800,1.552366943359375,3.526050090789795,-0.34905001521110535,7.6210503578186035
1752116315050220300,1.56222021484375,6.7669501304626465,-2.4370501041412354,12.082950592041016
1752116315069927700,1.581927734375,3.3600001335144043,-4.453050136566162,10.666050910949707
1752116315079781400,1.591781494140625,2.5990500450134277,-5.719950199127197,9.59595012664795
1752116315099488300,1.61148828125,12.046950340270996,-10.329000473022461,8.418000221252441
1752116315109342000,1.621342041015625,10.584000587463379,-9.931050300598145,11.425050735473633
1752116315119195600,1.631195556640625,6.5400004386901855,-8.092050552368164,11.169000625610352
1752116315129049300,1.64104931640625,5.190000057220459,-6.414000511169434,8.995050430297852
1752116315138902800,1.65090283203125,4.03095006942749,-5.511000156402588,8.193000793457031
1752116315148756200,1.660756103515625,3.693000078201294,-5.2260003089904785,8.383950233459473
1752116315158610000,1.67060986328125,5.901000499725342,-4.88700008392334,9.103050231933594
1752116315168463400,1.68046337890625,10.078950881958008,-4.384050369262695,6.646050453186035
1752116315178317000,1.690317138671875,12.41100025177002,-3.049950122833252,4.852950096130371
1752116315188170800,1.700170654296875,11.170050621032715,-1.9870500564575195,3.9720001220703125
1752116315198024400,1.7100244140625,16.479000091552734,-1.9339500665664673,3.3010501861572266
1752116315207878000,1.7198779296875,19.28205108642578,-2.1570000648498535,5.889000415802002
1752116315217731600,1.729731689453125,7.444950580596924,-2.4630000591278076,9.13800048828125
1752116315227585000,1.7395849609375,2.716050148010254,-3.4480502605438232,9.655950546264648
1752116315237438700,1.749438720703125,2.6610000133514404,-4.6780500411987305,10.17495059967041
1752116315247292400,1.75929248046875,5.199000358581543,-4.79295015335083,11.19795036315918
1752116315257146000,1.76914599609375,6.295950412750244,-4.762050151824951,13.360050201416016
1752116315266999800,1.778999755859375,6.159000396728516,-3.8110501766204834,10.591950416564941
1752116315276853200,1.788853271484375,6.32895040512085,-2.9880001544952393,8.86305046081543
1752116315286706700,1.798706787109375,5.75700044631958,-2.7340500354766846,8.583000183105469
1752116315296560400,1.808560302734375,5.48205041885376,-3.1630501747131348,8.497050285339355
1752116315306414000,1.8184140625,5.3520002365112305,-2.959050178527832,8.499000549316406
1752116315316267800,1.828267822265625,4.2870001792907715,-3.895050287246704,9.130949974060059
1752116315326121200,1.838121337890625,2.4790501594543457,-4.491000175476074,10.008000373840332
1752116315335975000,1.847974853515625,1.311000108718872,-4.063050270080566,10.635000228881836
1752116315345828400,1.857828369140625,1.1100000143051147,-3.109950065612793,9.909000396728516
1752116315355681800,1.867681884765625,1.5619500875473022,-2.977950096130371,9.031050682067871
1752116315365535500,1.877535400390625,4.419000148773193,-3.019050121307373,8.346000671386719
1752116315375389200,1.88738916015625,5.884050369262695,-2.241000175476074,8.128050804138184
1752116315385243000,1.897242919921875,5.886000156402588,-1.7449500560760498,7.723050594329834
1752116315395096300,1.907096435546875,5.995950222015381,-0.9690000414848328,7.2300004959106445
1752116315404950000,1.916949951171875,5.898000240325928,-2.329050064086914,8.526000022888184
1752116315414803700,1.9268037109375,5.553000450134277,-4.027050018310547,8.479949951171875
1752116315424657200,1.9366572265625,5.248950481414795,-4.579950332641602,8.32395076751709
1752116315434510800,1.9465107421875,4.392000198364258,-3.9379501342773438,9.02400016784668
1752116315444364300,1.9563642578125,3.68595027923584,-1.1920500993728638,5.875050067901611
1752116315454218200,1.96621826171875,3.561000108718872,-3.3040502071380615,2.3650500774383545
1752116315464071700,1.97607177734375,7.738950252532959,-3.475950241088867,4.98900032043457
1752116315473925000,1.985925048828125,5.821950435638428,-3.0169501304626465,7.534050464630127
1752116315483778800,1.99577880859375,6.481950283050537,-3.4639501571655273,5.784000396728516
1752116315493632300,2.00563232421875,7.222050189971924,-3.808950185775757,3.8779501914978027
1752116315503486000,2.01548583984375,6.712050437927246,-2.6290500164031982,3.2100000381469727
1752116315513339600,2.025339599609375,5.707050323486328,-3.14805006980896,3.2100000381469727
1752116315523193300,2.035193359375,5.103000164031982,-2.9380500316619873,3.20805025100708
1752116315542900700,2.054900634765625,2.058000087738037,-4.683000087738037,5.523000240325928
1752116315552754200,2.064754150390625,0.8530500531196594,-4.8070502281188965,7.165950298309326
1752116315562607900,2.07460791015625,1.689000129699707,-4.611000061035156,9.469050407409668
1752116315572461300,2.08446142578125,3.3480000495910645,-5.254950046539307,10.642050743103027
1752116315582315000,2.09431494140625,6.277050495147705,-3.151050090789795,10.558050155639648
1752116315592168400,2.10416845703125,7.762950420379639,-3.3010501861572266,8.70300006866455
1752116315602022100,2.114022216796875,6.631050109863281,-3.8110501766204834,6.889950275421143
1752116315611875600,2.12387548828125,6.211950302124023,-3.649050235748291,8.041950225830078
1752116315621729300,2.133729248046875,4.6650004386901855,-5.076000213623047,8.370000839233398
1752116315631583000,2.1435830078125,4.216950416564941,-4.591950416564941,8.638050079345703
1752116315641436700,2.153436767578125,3.9880502223968506,-4.884000301361084,8.101950645446777
1752116315651290000,2.1632900390625,3.3319501876831055,-5.047050476074219,5.889000415802002
1752116315661144000,2.17314404296875,4.035000324249268,-6.253950119018555,5.202000141143799
1752116315670997500,2.18299755859375,3.7270500659942627,-5.125950336456299,6.337050437927246
1752116315680851000,2.192850830078125,4.282050132751465,-5.182950019836426,7.2709503173828125
1752116315690704600,2.20270458984375,6.384000301361084,-4.675950050354004,9.36405086517334
1752116315700558300,2.212558349609375,7.9860005378723145,-3.649050235748291,11.538000106811523
1752116315710412000,2.222412109375,7.252950191497803,-2.401050090789795,16.4239501953125
1752116315720265700,2.232265625,4.663050174713135,-2.0490000247955322,18.56205177307129
1752116315739972600,2.25197265625,9.559050559997559,0.37005001306533813,4.783050060272217
1752116315749826300,2.261826416015625,5.553000450134277,-3.9100501537323,9.90000057220459
1752116315759680000,2.271679931640625,3.922950267791748,-2.8030500411987305,8.5420503616333
1752116315769533700,2.28153369140625,3.1180500984191895,-2.91795015335083,2.4660000801086426
1752116315779387400,2.291387451171875,6.20205020904541,-2.11395001411438,-4.551000118255615
1752116315789240800,2.30124072265625,8.5420503616333,-1.1590501070022583,-7.903050422668457
1752116315799094500,2.311094482421875,10.300950050354004,-2.2699501514434814,-4.261050224304199
1752116315808948000,2.320947998046875,9.700050354003906,-3.2659502029418945,2.2260000705718994
1752116315818801700,2.3308017578125,6.219000339508057,-3.6409502029418945,2.491950035095215
1752116315828655600,2.340655517578125,5.5410003662109375,-3.3949501514434814,2.6520001888275146
1752116315838509000,2.350509033203125,4.489950180053711,-3.7900502681732178,4.087049961090088
1752116315848362500,2.360362548828125,4.801950454711914,-4.864950180053711,9.007050514221191
1752116315858216200,2.37021630859375,5.512950420379639,-5.6670002937316895,12.450000762939453
1752116315868069600,2.380069580078125,4.726950168609619,-5.008950233459473,13.390950202941895
1752116315877923300,2.38992333984375,5.64900016784668,-4.2109503746032715,11.06100082397461
1752116315887777000,2.399777099609375,6.343950271606445,-4.230000019073486,9.282000541687012
1752116315897630700,2.409630615234375,4.957050323486328,-4.398000240325928,8.004000663757324
1752116315907484400,2.419484375,4.837950229644775,-4.932000160217285,8.095050811767578
1752116315917337900,2.429337890625,2.956050157546997,-3.676950216293335,6.202950477600098
1752116315927191600,2.439191650390625,4.785000324249268,-4.408050060272217,5.170950412750244
1752116315937045000,2.449044921875,2.376000165939331,-3.607950210571289,8.668950080871582
1752116315946899000,2.45889892578125,5.5489501953125,-4.609050273895264,8.935050010681152
1752116315956752400,2.46875244140625,5.5219502449035645,-3.8710501194000244,7.1010003089904785
1752116315966606000,2.478606201171875,4.984050273895264,-3.3570001125335693,6.475950241088867
1752116315976459800,2.488459716796875,4.308000087738037,-3.2340002059936523,6.675000190734863
1752116315986313200,2.498313232421875,2.8429501056671143,-4.246950149536133,7.102950572967529
1752116315996166700,2.508166748046875,1.8379501104354858,-5.044950008392334,6.748950481414795
1752116316006020400,2.518020263671875,3.3889501094818115,-5.1739501953125,6.148050308227539
1752116316015874000,2.5278740234375,4.902000427246094,-5.842050075531006,6.213000297546387
1752116316025727700,2.537727783203125,7.081050395965576,-5.803950309753418,6.586050510406494
1752116316035581200,2.547581298828125,8.046000480651855,-5.245950222015381,7.2709503173828125
1752116316045435000,2.557434814453125,9.15000057220459,-6.0169501304626465,8.182950019836426
1752116316055288600,2.56728857421875,7.828050136566162,-5.619000434875488,7.903050422668457
1752116316065142300,2.577142333984375,6.415050506591797,-5.104050159454346,7.348050117492676
1752116316074995700,2.58699560546875,4.153050422668457,-6.031050205230713,6.4710001945495605
1752116316084849400,2.596849365234375,5.308950424194336,-5.53095006942749,6.415950298309326
1752116316094703000,2.606703125,6.067950248718262,-4.573050022125244,6.957000255584717
1752116316104556800,2.616556884765625,7.279950141906738,-4.527000427246094,6.238950252532959
1752116316114410200,2.62641015625,5.683050155639648,-5.065950393676758,7.2330002784729
1752116316124264200,2.63626416015625,5.380950450897217,-4.672950267791748,7.624950408935547
1752116316134117600,2.64611767578125,6.006000518798828,-4.6810503005981445,7.35705041885376
1752116316143971300,2.655971435546875,6.6739501953125,-4.446000099182129,6.117000102996826
1752116316153824800,2.66582470703125,6.982950210571289,-4.278000354766846,5.94195032119751
1752116316163678500,2.675678466796875,7.785000324249268,-4.1610002517700195,5.5570502281188965
1752116316173532200,2.6855322265625,7.201050281524658,-4.951050281524658,4.635000228881836
1752116316183385600,2.695385498046875,6.853950500488281,-5.743950366973877,4.642050266265869
1752116316193239600,2.705239501953125,5.461950302124023,-5.2669501304626465,4.869000434875488
1752116316203093000,2.715093017578125,6.790950298309326,-5.332050323486328,4.82895040512085
1752116316212946700,2.72494677734375,7.087950229644775,-5.2260003089904785,3.9049501419067383
1752116316222800100,2.734800048828125,6.961050510406494,-5.491950035095215,4.051050186157227
1752116316232653800,2.74465380859375,6.652050495147705,-4.338000297546387,4.393050193786621
1752116316242507500,2.754507568359375,7.134000301361084,-4.7310004234313965,5.299950122833252
1752116316252361000,2.76436083984375,6.58305025100708,-4.788000106811523,5.229000091552734
1752116316262215000,2.77421484375,6.448950290679932,-4.638000011444092,5.025000095367432
1752116316272068400,2.784068359375,6.849000453948975,-4.417050361633301,4.51800012588501
1752116316281922000,2.793922119140625,6.4609503746032715,-4.234950065612793,4.3309502601623535
1752116316291775500,2.803775390625,6.2910003662109375,-4.125,4.189949989318848
1752116316301629200,2.813629150390625,6.889050483703613,-3.646050214767456,3.7990500926971436
1752116316311483000,2.82348291015625,6.528000354766846,-3.6610500812530518,3.2130000591278076
1752116316321336300,2.83333642578125,6.339000225067139,-3.847050189971924,2.977950096130371
1752116316331190300,2.843190185546875,6.229050159454346,-3.091050148010254,1.8360000848770142
1752116316341043700,2.853043701171875,6.7819504737854,-2.0779500007629395,-0.7489500641822815
1752116316350897400,2.8628974609375,8.282999992370605,-2.0590500831604004,-2.4630000591278076
1752116316360751000,2.872751220703125,10.23900032043457,-2.39205002784729,-0.6529500484466553
1752116316370604500,2.8826044921875,6.339000225067139,-4.537050247192383,2.3340001106262207
1752116316380458200,2.892458251953125,7.785000324249268,-4.896000385284424,-2.5950000286102295
1752116316390312000,2.90231201171875,1.549950122833252,-5.587950229644775,1.7310000658035278
1752116316400165600,2.91216552734375,1.0470000505447388,-8.21505069732666,12.8860502243042
1752116316410019000,2.92201904296875,2.644050121307373,-7.89900016784668,11.31705093383789
1752116316419873000,2.931873046875,8.719050407409668,-4.104000091552734,4.39995002746582
1752116316429726500,2.9417265625,10.600950241088867,-3.4710001945495605,6.643950462341309
1752116316439580000,2.951579833984375,11.512950897216797,-0.3660000264644623,5.310000419616699
1752116316449433600,2.96143359375,6.733950138092041,-5.92995023727417,9.892950057983398
1752116316459287300,2.971287353515625,0.010950000956654549,-7.812000274658203,14.245950698852539
1752116316469141000,2.98114111328125,5.8120503425598145,-7.005000114440918,15.133951187133789
1752116316478994400,2.990994384765625,6.945000171661377,-4.033950328826904,8.794050216674805
1752116316488848400,3.000848388671875,8.728050231933594,-4.44795036315918,5.463000297546387
1752116316498701800,3.010701904296875,5.862000465393066,-6.141000270843506,8.527950286865234
1752116316508555500,3.020555419921875,3.8389501571655273,-6.558000087738037,8.482049942016602
1752116316518409200,3.0304091796875,4.750950336456299,-5.250000476837158,8.095050811767578
1752116316528263000,3.040262939453125,5.311950206756592,-5.623950481414795,8.748000144958496
1752116316538116400,3.050116455078125,5.209050178527832,-6.3760504722595215,8.832000732421875
1752116316547970300,3.05997021484375,6.889050483703613,-6.87600040435791,8.487000465393066
1752116316557823700,3.06982373046875,8.110950469970703,-6.664950370788574,6.1459503173828125
1752116316567677400,3.079677490234375,8.154000282287598,-6.823050498962402,5.731050491333008
1752116316577531000,3.08953076171875,7.749000549316406,-6.6820502281188965,6.148050308227539
1752116316587384800,3.099384765625,8.214000701904297,-7.003050327301025,6.31095027923584
1752116316597238300,3.10923828125,7.561950206756592,-7.590000152587891,8.113950729370117
1752116316607092200,3.11909228515625,7.039950370788574,-6.642000198364258,13.414950370788574
1752116316616945700,3.128945556640625,5.623050212860107,-5.26200008392334,11.169000625610352
1752116316626799000,3.138799072265625,4.870950222015381,-7.3120503425598145,7.096050262451172
1752116316636653000,3.148653076171875,4.987950325012207,-6.318000316619873,2.382000207901001
1752116316646506500,3.158506591796875,5.901000499725342,-5.2069501876831055,0.05505000427365303
1752116316656360200,3.168360107421875,7.477950572967529,-5.65500020980835,5.988000392913818
1752116316666214000,3.1782138671875,-9.319050788879395,-7.525050163269043,26.356050491333008
1752116316676067600,3.188067626953125,4.749000072479248,1.1050500869750977,-13.882050514221191
1752116316685921300,3.19792138671875,11.398050308227539,0.8179500102996826,-13.585050582885742
1752116316695774700,3.207774658203125,7.540950298309326,-2.9950501918792725,-13.47900104522705
1752116316705628400,3.21762841796875,7.002000331878662,-3.9310503005981445,-4.843050003051758
1752116316715481900,3.22748193359375,9.688050270080566,-1.6900501251220703,-0.8299500346183777
1752116316725335800,3.237335693359375,12.754950523376465,-1.2930001020431519,0.8260500431060791
1752116316735189200,3.247189208984375,12.621000289916992,-3.4620001316070557,3.4620001316070557
1752116316745043200,3.257043212890625,12.48495101928711,-3.151050090789795,4.528950214385986
1752116316754896600,3.266896728515625,10.570050239562988,-2.9059500694274902,6.031050205230713
1752116316764750300,3.276750244140625,9.529950141906738,-4.189949989318848,5.077950477600098
1752116316774603800,3.286603759765625,7.495050430297852,-7.573050498962402,4.648950099945068
1752116316784457500,3.29645751953125,7.243950366973877,-5.061000347137451,3.5310001373291016
1752116316794311200,3.306311279296875,7.300950527191162,-2.3530499935150146,4.510050296783447
1752116316804164600,3.31616455078125,9.21405029296875,-1.1590501070022583,1.4029500484466553
1752116316814018600,3.3260185546875,12.564000129699707,-8.638050079345703,6.487950325012207
1752116316823872000,3.3358720703125,10.969050407409668,-11.566950798034668,12.342000961303711
1752116316833725700,3.3457255859375,8.848050117492676,-8.373000144958496,13.506000518798828
1752116316843579400,3.355579345703125,9.628950119018555,-5.056950092315674,9.619950294494629
1752116316853433000,3.36543310546875,8.32395076751709,-4.944000244140625,8.389050483703613
1752116316863286500,3.37528662109375,3.5880000591278076,-5.9760003089904785,6.469050407409668
1752116316873140200,3.38514013671875,3.1690502166748047,-6.3160505294799805,5.425050258636475
1752116316882994000,3.394993896484375,4.567049980163574,-4.2900004386901855,3.3199501037597656
1752116316892847600,3.40484765625,5.551050186157227,-3.409050226211548,5.341050148010254
1752116316902701300,3.414701416015625,5.143950462341309,-3.7830002307891846,5.229000091552734
1752116316912554800,3.4245546875,2.7139501571655273,-2.2549500465393066,6.718050479888916
1752116316922408400,3.434408447265625,1.6120500564575195,-1.582050085067749,3.8809502124786377
1752116316932262100,3.44426220703125,3.492000102996826,0.11700000613927841,2.197050094604492
1752116316942115800,3.45411572265625,3.696000099182129,0.9019500613212585,2.4370501041412354
1752116316951969500,3.463969482421875,3.892050266265869,1.4449501037597656,4.201050281524658
1752116316961823000,3.473822998046875,9.766950607299805,0.5910000205039978,4.114950180053711
1752116316971676700,3.4836767578125,19.7760009765625,-1.4359500408172607,0.7990500330924988
1752116316981530400,3.4935302734375,22.00200080871582,-3.5029501914978027,0.29205000400543213
1752116316991384000,3.503384033203125,14.757000923156738,-2.932950258255005,2.7940502166748047
1752116317001237500,3.513237548828125,9.552000045776367,-2.950050115585327,3.1309502124786377
1752116317011091500,3.523091552734375,5.6010003089904785,-3.1240501403808594,3.4620001316070557
1752116317020945000,3.53294482421875,5.034000396728516,-2.5350000858306885,3.559950113296509
1752116317030798600,3.542798583984375,8.446050643920898,-3.7680001258850098,5.265000343322754
1752116317040652300,3.55265234375,9.157050132751465,-6.049950122833252,4.012050151824951
1752116317050505700,3.562505615234375,7.114950180053711,-5.629050254821777,4.027050018310547
1752116317060359700,3.572359619140625,6.490050315856934,-2.703000068664551,4.077000141143799
1752116317070213000,3.582213134765625,7.9860005378723145,-2.5570502281188965,3.6600000858306885
1752116317080066800,3.59206689453125,8.254050254821777,-3.5620501041412354,3.367950201034546
1752116317089920500,3.60192041015625,7.111950397491455,-3.559950113296509,3.466050148010254
1752116317099774200,3.611774169921875,8.557950019836426,-2.6770501136779785,4.375950336456299
1752116317109628000,3.6216279296875,9.040050506591797,-2.1790502071380615,4.230000019073486
1752116317119481300,3.6314814453125,7.73205041885376,-1.8270001411437988,3.7900502681732178
1752116317129335000,3.6413349609375,15.061050415039062,-3.799950122833252,5.928000450134277
1752116317139188700,3.651188720703125,4.6840500831604,-2.728950023651123,4.924950122833252
1752116317149042400,3.66104248046875,4.62000036239624,-1.6470000743865967,5.089950084686279
1752116317158896000,3.670896240234375,8.07705020904541,-2.253000020980835,5.3460001945495605
1752116317168749600,3.68074951171875,7.933050155639648,-3.0019500255584717,6.628950119018555
1752116317178603300,3.690603271484375,8.266050338745117,-3.289950132369995,5.784000396728516
1752116317188457000,3.70045703125,9.094950675964355,-3.120000123977661,4.075050354003906
1752116317198310700,3.710310546875,9.028050422668457,-3.5269501209259033,4.120050430297852
1752116317208164400,3.720164306640625,8.175000190734863,-4.089000225067139,4.256999969482422
1752116317218018000,3.73001806640625,6.94005012512207,-4.156050205230713,4.2330002784729
1752116317227871500,3.73987158203125,7.1770501136779785,-2.54295015335083,3.7729501724243164
1752116317237725200,3.74972509765625,8.38800048828125,-1.4220000505447388,4.177950382232666
1752116317247579000,3.759578857421875,8.038949966430664,-1.1130000352859497,3.7510502338409424
1752116317257432600,3.7694326171875,6.8580002784729,-1.2139500379562378,3.0810000896453857
1752116317267286300,3.779286376953125,7.215000152587891,-2.782050132751465,4.273050308227539
1752116317277139700,3.7891396484375,8.319000244140625,-2.6650500297546387,7.467000484466553
1752116317286993700,3.79899365234375,8.30505084991455,-1.4239500761032104,8.334000587463379
1752116317296847000,3.80884716796875,8.199000358581543,-1.0249500274658203,9.795000076293945
1752116317306701000,3.818701171875,6.423000335693359,-1.3120501041412354,9.193950653076172
1752116317316554500,3.828554443359375,5.2230000495910645,-0.9310500621795654,7.402950286865234
1752116317326408200,3.838408203125,8.998950004577637,-1.7910001277923584,5.554050445556641
1752116317336261600,3.84826171875,5.874000072479248,-2.5759501457214355,6.574050426483154
1752116317346115300,3.858115234375,6.754950523376465,-1.0249500274658203,6.100050449371338
1752116317355969000,3.867968994140625,7.737000465393066,-0.21000000834465027,6.747000217437744
1752116317365823000,3.877822998046875,6.904050350189209,1.9150501489639282,7.249050140380859
1752116317375676400,3.887676513671875,6.925050258636475,2.48895001411438,7.276050567626953
1752116317385529900,3.89752978515625,6.930000305175781,2.9200501441955566,6.555000305175781
1752116317395383800,3.9073837890625,7.2460503578186035,3.7819502353668213,5.925000190734863
1752116317405237200,3.9172373046875,8.202000617980957,5.487000465393066,6.568950176239014
1752116317415091000,3.927091064453125,8.67300033569336,5.37000036239624,7.105950355529785
1752116317424944600,3.936944580078125,7.213050365447998,4.144050121307373,6.1620001792907715
1752116317434798300,3.94679833984375,5.473950386047363,0.9589500427246094,7.2300004959106445
1752116317444651800,3.95665185546875,4.651050090789795,-3.2629501819610596,6.421050071716309
1752116317454505500,3.96650537109375,6.798000335693359,-3.567000150680542,5.332050323486328
1752116317464359200,3.976359130859375,8.43600082397461,-6.313950061798096,3.5839502811431885
1752116317474212900,3.986212890625,9.720000267028809,-6.598050117492676,3.009000062942505
1752116317484066600,3.996066650390625,9.633000373840332,-6.651000499725342,3.1429500579833984
1752116317493920000,4.005919921875,9.037050247192383,-6.754050254821777,3.9190502166748047
1752116317503774000,4.01577392578125,9.969000816345215,-4.728000164031982,4.291950225830078
1752116317513627400,4.02562744140625,9.159000396728516,-2.401050090789795,3.3919501304626465
1752116317523481300,4.0354814453125,7.864050388336182,-2.703000068664551,3.7729501724243164
1752116317533334800,4.045334716796875,7.05495023727417,-2.170950174331665,4.579950332641602
1752116317543188500,4.0551884765625,9.193050384521484,-2.739000082015991,5.547000408172607
1752116317553042200,4.065042236328125,10.312950134277344,1.1220000982284546,3.7129502296447754
1752116317562895600,4.0748955078125,8.035950660705566,-0.07905000448226929,4.398000240325928
1752116317572749300,4.084749267578125,8.884050369262695,-2.083050012588501,5.533050060272217
1752116317582603000,4.09460302734375,9.028050422668457,-5.736000061035156,4.968000411987305
1752116317592456700,4.104456787109375,7.474050521850586,-5.137950420379639,4.644000053405762
1752116317602310400,4.114310302734375,4.869000434875488,0.8110500574111938,5.154000282287598
1752116317612164000,4.1241640625,6.66195011138916,0.7969500422477722,5.37000036239624
1752116317622017500,4.134017578125,7.7470502853393555,-0.4210500121116638,5.791050434112549
1752116317631871500,4.14387158203125,9.439050674438477,-3.2149500846862793,4.872000217437744
1752116317641725200,4.15372509765625,9.585000038146973,-3.676950216293335,4.375950336456299
1752116317651578600,4.16357861328125,7.52400016784668,-2.533050060272217,5.133000373840332
1752116317661432300,4.173432373046875,7.893000602722168,-0.9670500755310059,5.509050369262695
1752116317671286000,4.1832861328125,8.050950050354004,-1.1299500465393066,5.371950149536133
1752116317681139700,4.1931396484375,8.056050300598145,-0.9120000600814819,5.854050159454346
1752116317690993400,4.202993408203125,9.07800006866455,-3.706050157546997,5.503950119018555
1752116317700846800,4.212846923828125,8.998950004577637,-2.8590002059936523,5.224050045013428
1752116317710700500,4.222700439453125,8.829000473022461,-0.20100000500679016,4.90500020980835
1752116317720554200,4.23255419921875,8.248950004577637,0.4159500300884247,4.419000148773193
1752116317730407700,4.24240771484375,7.726950168609619,1.8330000638961792,4.723050117492676
1752116317740261600,4.25226171875,7.462050437927246,1.5910500288009644,4.768950462341309
1752116317750115000,4.262114990234375,7.07895040512085,1.4689500331878662,4.798050403594971
1752116317759969000,4.271968994140625,5.034000396728516,0.10695000737905502,5.386950492858887
1752116317769822500,4.281822509765625,6.307950496673584,-3.9979500770568848,5.047050476074219
1752116317779676200,4.29167626953125,7.783050537109375,-2.0680501461029053,6.004050254821777
1752116317789529900,4.30152978515625,8.973000526428223,-0.6319500207901001,5.94195032119751
1752116317799383600,4.311383544921875,8.142000198364258,-0.0019500000635161996,4.383000373840332
1752116317809237200,4.3212373046875,7.179000377655029,-1.1080501079559326,4.450050354003906
1752116317819091000,4.331091064453125,6.849000453948975,-1.4269500970840454,5.005950450897217
1752116317828944400,4.3409443359375,7.990950584411621,-2.892000198364258,4.2970499992370605
1752116317838798000,4.350798095703125,9.775050163269043,-3.037950038909912,4.2109503746032715
1752116317848651800,4.36065185546875,10.53600025177002,-2.9730000495910645,4.465050220489502
1752116317858505500,4.37050537109375,7.4760003089904785,-2.1259500980377197,5.563950061798096
1752116317868359200,4.380359130859375,8.296950340270996,-2.7150001525878906,4.194000244140625
1752116317878212600,4.390212646484375,7.584000587463379,-2.8470001220703125,3.258000135421753
1752116317888066600,4.400066650390625,8.9170503616333,-3.5220000743865967,3.4110002517700195
1752116317897920000,4.409919921875,9.159000396728516,-4.008000373840332,3.346950054168701
1752116317907774000,4.41977392578125,7.785000324249268,-3.057000160217285,3.7710001468658447
1752116317917627400,4.42962744140625,7.480950355529785,-2.4060001373291016,3.805950164794922
1752116317927481000,4.439481201171875,9.526050567626953,-2.284050226211548,4.458000183105469
1752116317937334800,4.449334716796875,8.733000755310059,-1.0009500980377197,3.9379501342773438
1752116317947188500,4.4591884765625,9.420000076293945,-2.989950180053711,3.091050148010254
1752116317957042200,4.469042236328125,8.842950820922852,-4.563000202178955,3.037950038909912
1752116317966895900,4.478895751953125,9.442049980163574,-4.711950302124023,4.282950401306152
1752116317976749300,4.488749267578125,8.628000259399414,-4.456050395965576,4.455000400543213
1752116317986603000,4.49860302734375,7.821000576019287,-3.558000087738037,4.510050296783447
1752116317996457000,4.50845703125,8.020050048828125,-2.1280500888824463,4.060050010681152
1752116318006310400,4.518310302734375,7.560000419616699,-2.1880500316619873,3.3919501304626465
1752116318016164000,4.5281640625,8.398050308227539,-3.139050245285034,2.9040000438690186
1752116318026017500,4.538017578125,8.862000465393066,-3.630000114440918,3.9310503005981445
1752116318035871500,4.54787158203125,8.82194995880127,-2.952000141143799,4.261050224304199
1752116318045725000,4.557724853515625,8.257050514221191,-1.0920000076293945,4.387950420379639
1752116318055579000,4.567578857421875,8.047950744628906,-1.0200001001358032,3.4450502395629883
1752116318065432300,4.577432373046875,7.699050426483154,-1.7670000791549683,4.069950103759766
1752116318075286000,4.5872861328125,7.14300012588501,-2.2960500717163086,4.077000141143799
1752116318085139700,4.5971396484375,9.255000114440918,-3.879000186920166,4.266000270843506
1752116318094993400,4.606993408203125,7.468950271606445,-2.1670501232147217,5.401050090789795
1752116318104847000,4.61684716796875,7.380000114440918,-1.2499500513076782,3.4020001888275146
1752116318114700800,4.62670068359375,8.202000617980957,0.9019500613212585,5.050950050354004
1752116318124554500,4.636554443359375,3.7960500717163086,4.539000034332275,3.9810001850128174
1752116318134408000,4.646407958984375,9.526050567626953,-2.8750500679016113,2.01104998588562
1752116318144261600,4.65626171875,8.260950088500977,-3.5310001373291016,5.158950328826904
1752116318154115300,4.666115234375,8.332950592041016,-5.392050266265869,3.8449501991271973
1752116318163969000,4.675968994140625,6.4009504318237305,-2.4559500217437744,4.387950420379639
1752116318173822700,4.68582275390625,11.33595085144043,-6.823050498962402,4.897950172424316
1752116318183676400,4.695676513671875,6.853950500488281,-3.4480502605438232,4.777950286865234
1752116318193530000,4.705530029296875,5.898000240325928,-2.782050132751465,2.69100022315979
1752116318203383800,4.7153837890625,8.074950218200684,-5.152050018310547,1.1220000982284546
1752116318213237200,4.7252373046875,5.47005033493042,-3.727950096130371,2.9250001907348633
1752116318223091200,4.73509130859375,9.631050109863281,-3.9910502433776855,0.909000039100647
1752116318232944600,4.744944580078125,4.830000400543213,-4.570050239562988,2.1090002059936523
1752116318242798300,4.75479833984375,10.354050636291504,-2.111999988555908,1.0069500207901
1752116318252652000,4.764652099609375,10.39995002746582,-3.397050142288208,0.4069500267505646
1752116318262505700,4.774505615234375,7.713000297546387,-3.009000062942505,0.6769500374794006
1752116318272359400,4.784359375,9.295950889587402,-4.860000133514404,-1.2370500564575195
1752116318282213000,4.794213134765625,9.042000770568848,-5.182950019836426,0.31995001435279846
1752116318292066800,4.80406689453125,10.416000366210938,-4.669050216674805,-1.4530500173568726
1752116318301920500,4.81392041015625,10.420950889587402,-6.438000202178955,-3.7819502353668213
1752116318311774200,4.823774169921875,8.022000312805176,-6.466950416564941,-1.8360000848770142
1752116318321628000,4.8336279296875,7.711050510406494,-6.7420501708984375,0.8590500354766846
1752116318331481600,4.843481689453125,8.704050064086914,-6.58905029296875,-0.14595000445842743
1752116318341335000,4.8533349609375,9.15000057220459,-5.503950119018555,-0.1099500060081482
1752116318351188700,4.863188720703125,9.034950256347656,-6.193950176239014,-1.141950011253357
1752116318361042400,4.87304248046875,8.829000473022461,-7.944000244140625,-0.07905000448226929
1752116318370896100,4.882896240234375,8.38800048828125,-7.723950386047363,0.13095000386238098
1752116318380749600,4.89274951171875,8.740050315856934,-8.107049942016602,-0.7489500641822815
1752116318390603500,4.902603515625,8.805000305175781,-7.326000213623047,-1.5460500717163086
1752116318400457000,4.91245703125,8.58495044708252,-7.222950458526611,-1.489050030708313
1752116318410311000,4.922310791015625,8.653950691223145,-6.538950443267822,-0.9360000491142273
1752116318420164400,4.932164306640625,8.920050621032715,-5.373000144958496,-0.9760500192642212
1752116318430018300,4.942018310546875,7.8949503898620605,-5.170950412750244,-1.2130500078201294
1752116318439872000,4.9518720703125,8.151000022888184,-6.175050258636475,-0.5860500335693359
1752116318449725400,4.961725341796875,8.347949981689453,-6.3760504722595215,-0.16200000047683716
1752116318459579100,4.9715791015625,8.37405014038086,-7.896000385284424,-0.856950044631958
1752116318469432800,4.981432861328125,8.671050071716309,-7.14900016784668,-0.12600000202655792
1752116318479286500,4.99128662109375,8.728050231933594,-6.3160505294799805,-0.8329500555992126
1752116318489140200,5.00114013671875,8.067000389099121,-6.850050449371338,-0.4930500090122223
1752116318498994000,5.010993896484375,8.496000289916992,-6.948000431060791,-0.022950001060962677
1752116318508847600,5.02084765625,8.203949928283691,-7.057950496673584,0.2460000067949295
1752116318518701300,5.030701416015625,8.422050476074219,-5.85105037689209,0.3660000264644623
1752116318528555000,5.040554931640625,8.446050643920898,-5.394000053405762,0.43800002336502075
1752116318538408700,5.05040869140625,8.805000305175781,-5.121000289916992,0.6460500359535217
1752116318548262400,5.060262451171875,9.526050567626953,-5.076000213623047,0.921000063419342
1752116318558116000,5.0701162109375,9.040050506591797,-5.772000312805176,1.3399500846862793
1752116318567969500,5.079969482421875,9.232950210571289,-6.345000267028809,1.755000114440918
1752116318577823500,5.089823486328125,8.716050148010254,-6.490950107574463,1.8690000772476196
1752116318587677000,5.099677001953125,8.410050392150879,-5.82705020904541,1.9720500707626343
1752116318597531000,5.10953076171875,8.166000366210938,-2.7199501991271973,1.7830500602722168
1752116318607384300,5.11938427734375,7.04295015335083,-1.3410000801086426,0.5209500193595886
1752116318617238300,5.12923828125,7.498050212860107,-1.5630000829696655,-0.6510000228881836
1752116318627091700,5.139091796875,7.933050155639648,-2.422950029373169,-0.31995001435279846
1752116318636945700,5.148945556640625,8.29995059967041,-3.0640501976013184,0.33000001311302185
1752116318646799000,5.158799072265625,8.713950157165527,-3.6510002613067627,1.2540000677108765
1752116318656653000,5.168653076171875,9.442049980163574,-4.2019500732421875,1.9990501403808594
1752116318666506500,5.178506591796875,8.767050743103027,-4.056000232696533,2.013000011444092
1752116318676360400,5.1883603515625,9.532950401306152,-4.815000057220459,1.7880001068115234
1752116318686214000,5.1982138671875,8.668050765991211,-4.599000453948975,1.6060501337051392
1752116318696067800,5.20806787109375,8.980050086975098,-4.73805046081543,0.909000039100647
1752116318705921300,5.21792138671875,9.95205020904541,-4.5199503898620605,1.2780001163482666
1752116318715775000,5.22777490234375,8.709000587463379,-4.132050037384033,1.294950008392334
1752116318725628700,5.237628662109375,9.018000602722168,-3.8740501403808594,1.0840500593185425
1752116318735482400,5.247482421875,8.901000022888184,-3.6100502014160156,0.8730000257492065
1752116318745336000,5.257336181640625,8.641950607299805,-3.249000072479248,0.5719500184059143
1752116318755189800,5.267189697265625,8.937000274658203,-3.1080000400543213,0.7750500440597534
1752116318765043500,5.27704345703125,8.949000358581543,-2.7120001316070557,0.7969500422477722
1752116318774897200,5.286897216796875,8.629950523376465,-2.1040501594543457,0.814050018787384
1752116318784750800,5.296750732421875,8.893950462341309,-1.6950000524520874,0.48600003123283386
1752116318794604500,5.3066044921875,8.704050064086914,-0.3520500063896179,0.08595000207424164
1752116318804458200,5.316458251953125,9.235950469970703,-1.7839500904083252,0.6100500226020813
1752116318814312000,5.32631201171875,8.463000297546387,-2.6359500885009766,0.5670000314712524
1752116318824165400,5.336165283203125,8.764050483703613,-3.80400013923645,0.39900001883506775
1752116318834019000,5.34601904296875,9.09000015258789,-4.707000255584717,0.6409500241279602
1752116318843873000,5.355873046875,9.232950210571289,-5.205000400543213,1.5010501146316528
1752116318853726500,5.3657265625,9.073050498962402,-5.2819504737854,1.7640000581741333
1752116318863580400,5.375580322265625,9.360000610351562,-4.815000057220459,0.856950044631958
1752116318873433900,5.385433837890625,9.118950843811035,-4.61400032043457,0.700950026512146
1752116318883287800,5.395287841796875,9.118950843811035,-4.50600004196167,0.8520000576972961
1752116318893141200,5.405141357421875,9.20205020904541,-5.044950008392334,0.7350000143051147
1752116318902995000,5.414994873046875,8.944050788879395,-5.526000499725342,0.41895002126693726
1752116318912848600,5.4248486328125,9.040050506591797,-5.236050128936768,0.6270000338554382
1752116318922702300,5.434702392578125,9.6670503616333,-4.71405029296875,0.9499500393867493
1752116318932556000,5.44455615234375,9.372000694274902,-3.835050106048584,1.5649501085281372
1752116318942409700,5.45440966796875,9.319950103759766,-2.611950159072876,1.4190000295639038
1752116318952263400,5.464263427734375,8.995950698852539,-2.9140501022338867,0.361050009727478
1752116318962117000,5.4741171875,8.245050430297852,-3.226950168609619,-0.09795000404119492
1752116318971970800,5.483970703125,8.68005084991455,-3.736950159072876,0.15300001204013824
1752116318981824500,5.493824462890625,8.151000022888184,-3.80400013923645,0.6340500116348267
1752116318991678200,5.50367822265625,8.5420503616333,-3.6750001907348633,0.6840000152587891
1752116319001531600,5.51353173828125,8.367000579833984,-2.8030500411987305,0.5860500335693359
1752116319011385600,5.523385498046875,8.664000511169434,-2.2579500675201416,0.4300500154495239
1752116319021239000,5.533239013671875,9.355950355529785,-1.4989501237869263,0.2560500204563141
1752116319031093000,5.543093017578125,9.217050552368164,-1.6060501337051392,0.28395000100135803
1752116319040946700,5.55294677734375,9.41100025177002,-1.9390500783920288,0.15495000779628754
1752116319050800400,5.56280029296875,9.343950271606445,-1.6470000743865967,0.4140000343322754
1752116319060653800,5.57265380859375,9.22605037689209,-0.7900500297546387,0.6679500341415405
1752116319070507800,5.5825078125,9.171000480651855,0.39000001549720764,0.5670000314712524
1752116319080361500,5.592361572265625,9.223950386047363,-0.1960500031709671,0.6439500451087952
1752116319090215200,5.602215087890625,9.370050430297852,1.1010000705718994,1.2490500211715698
1752116319100068600,5.612068603515625,9.68595027923584,-0.45000001788139343,1.6279500722885132
1752116319109922600,5.621922607421875,9.471000671386719,-0.6649500131607056,1.4839500188827515
1752116319119776000,5.63177587890625,8.767050743103027,-1.3999500274658203,1.527000069618225
1752116319129630000,5.6416298828125,8.458050727844238,-2.382000207901001,1.4220000505447388
1752116319139483400,5.6514833984375,8.029050827026367,-3.547950267791748,1.078950047492981
1752116319149337300,5.66133740234375,8.509950637817383,-4.795950412750244,-0.27000001072883606
1752116319159190800,5.671190673828125,9.181050300598145,-4.897950172424316,0.49995002150535583
1752116319169044700,5.681044677734375,9.339000701904297,-5.00100040435791,0.7129500508308411
1752116319178898200,5.690898193359375,9.41100025177002,-5.401050090789795,0.37095001339912415
1752116319188752100,5.700752197265625,10.123950004577637,-6.712950229644775,0.5689499974250793
1752116319198605800,5.710605712890625,10.117050170898438,-5.997000217437744,0.8329500555992126
1752116319208459500,5.72045947265625,9.504000663757324,-4.642050266265869,0.5839500427246094
1752116319218313000,5.73031298828125,9.244950294494629,-3.6150002479553223,0.48795002698898315
1752116319228166700,5.740166748046875,9.268950462341309,-3.076050043106079,0.38700002431869507
1752116319238020600,5.7500205078125,9.147000312805176,-2.887050151824951,0.3559500277042389
1752116319247874000,5.7598740234375,8.82194995880127,-2.703000068664551,0.2939999997615814
1752116319257727700,5.769727783203125,8.652000427246094,-2.3800501823425293,0.05895000323653221
1752116319267581400,5.77958154296875,8.79104995727539,-2.3460001945495605,-0.031050002202391624
1752116319277435400,5.789435302734375,8.818950653076172,-2.442000150680542,-0.08295000344514847
1752116319287288800,5.799288818359375,8.920050621032715,-2.6359500885009766,0.05700000375509262
1752116319297142800,5.809142822265625,9.328950881958008,-2.9260501861572266,0.028050001710653305
1752116319306996500,5.81899658203125,9.742950439453125,-3.3949501514434814,0.2580000162124634
1752116319316850200,5.82885009765625,9.481950759887695,-3.879000186920166,0.7579500079154968
1752116319326703900,5.838703857421875,9.181050300598145,-4.4320502281188965,1.3140000104904175
1752116319336557600,5.8485576171875,9.826950073242188,-4.198950290679932,1.2570000886917114
1752116319346411300,5.858411376953125,9.031949996948242,-3.9379501342773438,1.1220000982284546
1752116319356265000,5.868264892578125,8.84595012664795,-3.8400001525878906,0.984000027179718
1752116319366118700,5.87811865234375,8.920050621032715,-3.5430002212524414,0.7990500330924988
1752116319375972400,5.887972412109375,9.106950759887695,-3.261000156402588,0.7579500079154968
1752116319385826000,5.897825927734375,9.289050102233887,-3.0640501976013184,0.7990500330924988
1752116319395679700,5.9076796875,9.358050346374512,-2.880000114440918,0.7579500079154968
1752116319405533400,5.917533447265625,9.25005054473877,-2.7169501781463623,0.7030500173568726
1752116319415387100,5.92738720703125,9.181050300598145,-2.680950164794922,0.6439500451087952
1752116319425240800,5.93724072265625,9.222000122070312,-2.6670000553131104,0.559950053691864
1752116319435094500,5.947094482421875,9.17400074005127,-2.722050189971924,0.5839500427246094
1752116319444948000,5.956947998046875,9.243000030517578,-2.82705020904541,0.7249500155448914
1752116319454802000,5.966802001953125,9.303000450134277,-2.9710500240325928,0.7870500087738037
1752116319464655400,5.9766552734375,9.19800090789795,-3.1080000400543213,0.7780500650405884
1752116319474509300,5.98650927734375,9.123000144958496,-3.2130000591278076,0.742050051689148
1752116319484363000,5.996363037109375,9.063000679016113,-3.189000129699707,0.6600000262260437
1752116319494216700,6.006216796875,9.058950424194336,-3.129000186920166,0.6049500107765198
1752116319504070400,6.0160703125,9.135000228881836,-3.06000018119812,0.6079500317573547
1752116319513924000,6.025924072265625,9.223950386047363,-3.0480000972747803,0.6169500350952148
1752116319523777800,6.03577783203125,9.346050262451172,-3.0450000762939453,0.6840000152587891
1752116319533631500,6.045631591796875,9.370050430297852,-3.121950149536133,0.7030500173568726
1752116319543485200,6.055485107421875,9.348000526428223,-3.120000123977661,0.6990000605583191
1752116319553339000,6.0653388671875,9.331950187683105,-3.1080000400543213,0.6169500350952148
1752116319563192600,6.075192626953125,9.328950881958008,-3.076050043106079,0.5550000071525574
1752116319573046300,6.08504638671875,9.315000534057617,-3.0859501361846924,0.5260500311851501
1752116319582900000,6.09489990234375,9.303000450134277,-3.109950065612793,0.5430000424385071
1752116319592753700,6.104753662109375,9.277050018310547,-3.1150500774383545,0.5239500403404236
1752116319602607400,6.114607421875,9.301050186157227,-3.14805006980896,0.5359500050544739
1752116319612461300,6.12446142578125,9.265050888061523,-3.1270501613616943,0.4639500081539154
1752116319622314800,6.134314697265625,9.25005054473877,-3.072000026702881,0.4420500099658966
1752116319632168700,6.144168701171875,9.235950469970703,-3.0210001468658447,0.4039500057697296
1752116319642022400,6.1540224609375,9.279000282287598,-3.007050037384033,0.4300500154495239
1752116319651876000,6.1638759765625,9.292950630187988,-3.1600501537323,0.46605002880096436
1752116319661729800,6.173729736328125,9.289050102233887,-3.1960501670837402,0.4759500324726105
1752116319671583500,6.18358349609375,9.205050468444824,-3.199050188064575,0.5380499958992004
1752116319681437200,6.193437255859375,9.135000228881836,-3.1030502319335938,0.5530500411987305
1752116319691291000,6.203290771484375,9.166050910949707,-2.989950180053711,0.4830000102519989
1752116319701144600,6.21314453125,9.26205062866211,-2.8819501399993896,0.39705002307891846
1752116319710998300,6.222998291015625,9.358050346374512,-2.830050230026245,0.3160500228404999
1752116319720851700,6.232851806640625,9.508950233459473,-2.9110500812530518,0.2939999997615814
1752116319730706000,6.242705810546875,9.619050025939941,-3.0240001678466797,0.31995001435279846
1752116319740559000,6.25255908203125,9.535050392150879,-3.181950092315674,0.3469500243663788
1752116319750413000,6.2624130859375,9.313050270080566,-3.2989501953125,0.33195000886917114
1752116319760266800,6.272266845703125,9.010950088500977,-3.4429502487182617,0.30105000734329224
1752116319770120400,6.282120361328125,8.842950820922852,-3.469050168991089,0.20295001566410065
1752116319779974100,6.29197412109375,8.824049949645996,-3.4360501766204834,0.10695000737905502
1752116319789827800,6.301827880859375,8.872050285339355,-3.3450002670288086,0.1960500031709671
1752116319799681500,6.311681640625,9.061050415039062,-3.2659502029418945,0.1860000044107437
1752116319809535200,6.32153515625,9.199950218200684,-3.2920501232147217,0.19305001199245453
1752116319819389000,6.331388916015625,9.298050880432129,-3.306000232696533,0.17205001413822174
1752116319829242600,6.34124267578125,9.169050216674805,-3.258000135421753,0.14100000262260437
1752116319839096300,6.351096435546875,8.949000358581543,-3.178950071334839,0.15000000596046448
1752116319848950000,6.360949951171875,8.773950576782227,-3.109950065612793,0.17400000989437103
1752116319858803700,6.3708037109375,8.824049949645996,-2.947050094604492,0.1360500007867813
1752116319868657700,6.38065771484375,8.97705078125,-2.848950147628784,0.1789500117301941
1752116319878511000,6.390510986328125,9.1399507522583,-2.8350000381469727,0.39000001549720764
1752116319888365000,6.400364990234375,9.340950012207031,-2.8590002059936523,0.44505003094673157
1752116319898218500,6.410218505859375,9.418050765991211,-2.9640002250671387,0.6840000152587891
1752116319908072400,6.420072509765625,9.496950149536133,-2.959050178527832,0.6289500594139099
1752116319917926000,6.42992578125,9.552000045776367,-2.962050199508667,0.7080000042915344
1752116319927779800,6.43977978515625,9.529950141906738,-3.0480000972747803,0.9400500655174255
1752116319937633300,6.44963330078125,9.562050819396973,-3.289950132369995,1.234950065612793
1752116319947487200,6.4594873046875,9.559050559997559,-3.510000228881836,1.374000072479248
1752116319957340700,6.469340576171875,9.41100025177002,-3.658050060272217,1.4359500408172607
1752116319967194600,6.479194580078125,9.279000282287598,-3.6220502853393555,1.4070000648498535
1752116319986902300,6.49890234375,8.973000526428223,-3.2820000648498535,1.3570500612258911
1752116319996755700,6.508755615234375,8.970000267028809,-3.0670502185821533,1.2520500421524048
1752116320006609700,6.518609619140625,9.118950843811035,-2.950050115585327,1.1730000972747803
1752116320016463000,6.528463134765625,9.232950210571289,-2.8440001010894775,1.1299500465393066
1752116320026317000,6.538317138671875,9.394050598144531,-2.8060500621795654,1.0750499963760376
1752116320036170500,6.54817041015625,9.459000587463379,-2.7960002422332764,0.9859500527381897
1752116320046024200,6.558024169921875,9.451050758361816,-2.808000087738037,0.7800000309944153
1752116320055878000,6.5678779296875,9.370050430297852,-2.892000198364258,0.6790500283241272
1752116320065731600,6.577731689453125,9.315000534057617,-2.977950096130371,0.7180500626564026
1752116320075585300,6.587585205078125,9.315000534057617,-3.0930001735687256,0.8110500574111938
1752116320085439000,6.59743896484375,9.4350004196167,-3.1600501537323,0.7990500330924988
1752116320095292700,6.607292724609375,9.526050567626953,-3.2440502643585205,0.7849500179290771
1752116320105146400,6.617146484375,9.451050758361816,-3.2749502658843994,0.7200000286102295
1752116320115000000,6.627,9.267000198364258,-3.2509500980377197,0.675000011920929
1752116320124853800,6.636853759765625,9.067950248718262,-3.201000213623047,0.5740500092506409
1752116320134707700,6.646707763671875,8.994000434875488,-3.178950071334839,0.41895002126693726
1752116320144561200,6.65656103515625,9.025050163269043,-3.1410000324249268,0.361050009727478
1752116320154415000,6.6664150390625,9.16200065612793,-3.1410000324249268,0.31800001859664917
1752116320164268800,6.676268798828125,9.292950630187988,-3.220050096511841,0.34905001521110535
1752116320174122500,6.68612255859375,9.331950187683105,-3.2730002403259277,0.4639500081539154
1752116320183976200,6.69597607421875,9.265050888061523,-3.2989501953125,0.49800002574920654
1752116320193830000,6.705829833984375,9.154050827026367,-3.3160500526428223,0.48600003123283386
1752116320203683600,6.71568359375,9.042000770568848,-3.3040502071380615,0.5550000071525574
1752116320213537300,6.725537353515625,9.094950675964355,-3.28695011138916,0.5790000557899475
1752116320223390700,6.735390625,9.13800048828125,-3.2059502601623535,0.6340500116348267
1752116320233244700,6.74524462890625,9.289050102233887,-3.1339502334594727,0.6889500617980957
1752116320243098400,6.755098388671875,9.447000503540039,-3.100050210952759,0.6580500602722168
1752116320252952000,6.7649521484375,9.729000091552734,-3.1720502376556396,0.5809500217437744
1752116320262805800,6.7748056640625,9.71505069732666,-3.2779500484466553,0.5929500460624695
1752116320272659500,6.784659423828125,9.660000801086426,-3.400050163269043,0.5329500436782837
1752116320282513200,6.79451318359375,9.67905044555664,-3.4810502529144287,0.5410500168800354
1752116320292367000,6.8043671875,9.751049995422363,-3.5050501823425293,0.5689499974250793
1752116320302220800,6.814220703125,9.826950073242188,-3.574050188064575,0.7080000042915344
1752116320312074500,6.824074462890625,9.909000396728516,-3.52905011177063,0.7200000286102295
1752116320321928200,6.83392822265625,9.961050033569336,-3.469050168991089,0.7110000252723694
1752116320331782000,6.843781982421875,9.997050285339355,-3.366000175476074,0.7249500155448914
1752116320341635600,6.853635498046875,9.942000389099121,-3.2250001430511475,0.6910500526428223
1752116320351489300,6.8634892578125,9.909000396728516,-3.1600501537323,0.6390000581741333
1752116320361343000,6.873343017578125,9.930000305175781,-3.139050245285034,0.6319500207901001
1752116320371196700,6.88319677734375,10.009050369262695,-3.1530001163482666,0.6529500484466553
1752116320381050400,6.89305029296875,10.207950592041016,-3.2539501190185547,0.6199500560760498
1752116320390904000,6.902904052734375,10.468950271606445,-3.38100004196167,0.6510000228881836
1752116320400758000,6.912758056640625,10.744050979614258,-3.7129502296447754,0.8260500431060791
1752116320410611500,6.922611572265625,10.926000595092773,-4.099050045013428,0.9810000658035278
1752116320420465200,6.932465087890625,10.80405044555664,-4.494000434875488,1.3020000457763672
1752116320430318800,6.94231884765625,10.31100082397461,-4.554000377655029,1.3789501190185547
1752116320440172500,6.952172607421875,9.5110502243042,-4.173000335693359,1.1220000982284546
1752116320450026200,6.962026123046875,8.599050521850586,-3.3130502700805664,0.41100001335144043
1752116320459880200,6.971880126953125,7.9860005378723145,-2.140050172805786,-0.38700002431869507
1752116320469734000,6.98173388671875,7.761000156402588,-1.3189500570297241,-1.234950065612793
1752116320479587600,6.991587646484375,7.761000156402588,-0.703950047492981,-1.921950101852417
1752116320489441300,7.001441162109375,7.753950595855713,-0.33000001311302185,-2.4559500217437744
1752116320499295000,7.011294921875,7.663050174713135,-0.226950004696846,-2.6740500926971436
1752116320509148700,7.021148681640625,7.483050346374512,-0.18405000865459442,-2.593050241470337
1752116320519002400,7.03100244140625,7.234050273895264,-0.21495001018047333,-2.410950183868408
1752116320528856000,7.04085595703125,6.88200044631958,-0.28905001282691956,-1.981950044631958
1752116320538709800,7.050709716796875,6.4270501136779785,-0.21495001018047333,-1.503000020980835
1752116320548563500,7.0605634765625,6.207000255584717,0.018000001087784767,-1.120050072669983
1752116320558417200,7.070417236328125,5.946000099182129,0.2530499994754791,-0.9430500268936157
1752116320568270800,7.080270751953125,5.716050148010254,0.39705002307891846,-0.9739500284194946
1752116320578124500,7.09012451171875,5.632050037384033,0.41805002093315125,-1.2540000677108765
1752116320587978200,7.099978271484375,5.671050071716309,0.2989500164985657,-1.429050087928772
1752116320597832000,7.10983203125,5.937000274658203,-0.08595000207424164,-1.5510001182556152
1752116320607685600,7.119685546875,6.406050205230713,-0.661050021648407,-1.4100000858306885
1752116320617539300,7.129539306640625,7.402050495147705,-1.3290001153945923,-1.0030500888824463
1752116320627393000,7.13939306640625,9.351000785827637,-1.636950135231018,-0.675000011920929
1752116320637247000,7.1492470703125,11.484000205993652,-2.5660500526428223,0.010950000956654549
1752116320647100700,7.1591005859375,13.183950424194336,-4.942050457000732,0.8260500431060791
1752116320656954600,7.16895458984375,14.13900089263916,-6.270000457763672,1.8240001201629639
1752116320666808000,7.17880810546875,12.997050285339355,-6.570000171661377,1.8409501314163208
1752116320676661800,7.188661865234375,12.298050880432129,-6.7159504890441895,1.612950086593628
1752116320686515500,7.198515380859375,12.466050148010254,-7.153950214385986,1.5510001182556152
1752116320696369200,7.208369140625,13.282051086425781,-9.270000457763672,1.8190500736236572
1752116320706222800,7.218222900390625,14.020051002502441,-11.368050575256348,2.16195011138916
1752116320716076500,7.22807666015625,14.008050918579102,-11.362950325012207,1.9560000896453857
1752116320725930200,7.23793017578125,13.258050918579102,-9.661050796508789,1.9480501413345337
1752116320735784000,7.247783935546875,12.772050857543945,-6.799950122833252,1.9990501403808594
1752116320745637600,7.2576376953125,12.277050971984863,-4.657050132751465,1.8430501222610474
1752116320755491300,7.2674912109375,11.344950675964355,-3.3420002460479736,1.4790000915527344
1752116320765345000,7.277344970703125,10.135950088500977,-1.6350001096725464,0.4350000321865082
1752116320775199000,7.287198974609375,8.66100025177002,-0.2939999997615814,-0.361050009727478
1752116320785052700,7.297052734375,6.942000389099121,0.34200000762939453,-0.5410500168800354
1752116320794906000,7.306906005859375,5.898000240325928,0.7890000343322754,-0.6169500350952148
1752116320804760000,7.316760009765625,5.115000247955322,1.0549499988555908,-0.6289500594139099
1752116320814613500,7.326613525390625,4.933050155639648,0.9640500545501709,-0.5500500202178955
1752116320824467500,7.336467529296875,5.19195032119751,0.5620500445365906,-0.505050003528595
1752116320834321000,7.34632080078125,5.6610002517700195,-0.09600000083446503,-0.4159500300884247
1752116320844174800,7.3561748046875,6.006000518798828,-0.6270000338554382,-0.45900002121925354
1752116320854028300,7.3660283203125,6.394050121307373,-0.9649500250816345,-0.8040000200271606
1752116320863882200,7.37588232421875,6.874950408935547,-1.1680500507354736,-1.0720500946044922
1752116320873736000,7.38573583984375,7.411050319671631,-1.1539500951766968,-1.2540000677108765
1752116320883589600,7.395589599609375,7.912050247192383,-0.8929500579833984,-1.596000075340271
1752116320893443300,7.405443359375,8.272950172424316,-0.5670000314712524,-2.092050075531006
1752116320903297000,7.415297119140625,8.544000625610352,-0.37800002098083496,-2.521050214767456
1752116320913150700,7.425150634765625,8.884050369262695,-0.26295000314712524,-2.623950242996216
1752116320923004400,7.43500439453125,9.43695068359375,-0.07395000010728836,-2.2210500240325928
1752116320932858400,7.4448583984375,10.071000099182129,-0.9690000414848328,-1.4959501028060913
1752116320942712000,7.454712158203125,11.27595043182373,-3.318000078201294,-0.1960500031709671
1752116320952565800,7.464565673828125,12.315000534057617,-5.3959503173828125,1.2160500288009644
1752116320962419500,7.47441943359375,12.38895034790039,-6.735000133514404,2.25
1752116320972273200,7.484273193359375,11.755050659179688,-7.25700044631958,3.20805025100708
1752116320982126800,7.494126953125,10.917000770568848,-6.879000186920166,3.370950222015381
1752116320991980500,7.50398046875,9.92805004119873,-5.76300048828125,2.5639500617980957
1752116321001834200,7.513834228515625,9.481950759887695,-4.422000408172607,1.7040001153945923
1752116321011688000,7.52368798828125,9.504000663757324,-3.1750502586364746,1.0939500331878662
1752116321021541600,7.533541748046875,9.600000381469727,-2.218950033187866,0.8779500126838684
1752116321031395300,7.543395263671875,9.616950035095215,-1.7740501165390015,0.6030000448226929
1752116321041249000,7.5532490234375,9.367950439453125,-1.76895010471344,0.5140500068664551
1752116321051103000,7.56310302734375,9.037050247192383,-2.155050039291382,0.4350000321865082
1752116321060956700,7.572956787109375,8.581950187683105,-2.5860002040863037,0.44505003094673157
1752116321070810000,7.58281005859375,8.470050811767578,-2.791950225830078,0.28005000948905945
1752116321080664000,7.5926640625,8.6089506149292,-2.887050151824951,0.12405000627040863
1752116321090517800,7.602517822265625,8.890950202941895,-2.8849501609802246,0.1189500093460083
1752116321100371500,7.612371337890625,9.232950210571289,-2.743950128555298,-0.09795000404119492
1752116321110225000,7.622224853515625,9.420000076293945,-2.491950035095215,-0.35100001096725464
1752116321120078800,7.632078857421875,9.44895076751709,-2.2860000133514404,-0.4620000123977661
1752116321129932500,7.6419326171875,9.1399507522583,-2.1190500259399414,-0.009000000543892384
1752116321139786200,7.6517861328125,9.304950714111328,-2.2240500450134277,0.18900001049041748
1752116321149640000,7.661639892578125,9.26205062866211,-2.3869500160217285,0.21300001442432404
1752116321159493600,7.67149365234375,9.382050514221191,-2.6170501708984375,0.4300500154495239
1752116321169347600,7.68134765625,9.334050178527832,-2.69100022315979,0.853950023651123
1752116321179201000,7.691200927734375,9.613950729370117,-2.8540501594543457,0.5790000557899475
1752116321189055000,7.701054931640625,10.006950378417969,-3.0169501304626465,0.4020000100135803
1752116321198908700,7.71090869140625,10.2610502243042,-3.120000123977661,0.3540000021457672
1752116321208762400,7.720762451171875,10.045050621032715,-3.1339502334594727,0.5550000071525574
1752116321218616000,7.730615966796875,9.850950241088867,-3.121950149536133,0.9360000491142273
1752116321228469800,7.7404697265625,9.69105052947998,-3.076050043106079,0.3630000054836273
1752116321238323500,7.750323486328125,9.571050643920898,-2.992950201034546,0.742050051689148
1752116321248177200,7.76017724609375,9.025050163269043,-2.8849501609802246,1.2780001163482666
1752116321258030800,7.77003076171875,9.22605037689209,-2.811000108718872,0.9790500402450562
1752116321267884500,7.779884521484375,9.43695068359375,-2.671950101852417,0.6390000581741333
1752116321277738200,7.78973828125,9.135000228881836,-2.6329500675201416,0.909000039100647
1752116321287592000,7.799592041015625,9.38895034790039,-2.659950017929077,1.024049997329712
1752116321297446000,7.80944580078125,9.42300033569336,-2.6260502338409424,0.05700000375509262
1752116321307299600,7.819299560546875,9.480000495910645,-2.6100001335144043,0.37095001339912415
1752116321317153300,7.8291533203125,8.970000267028809,-2.5279500484466553,0.6390000581741333
1752116321327007000,7.839007080078125,9.343950271606445,-2.5380001068115234,0.33705002069473267
1752116321336860700,7.848860595703125,9.49905014038086,-2.5879502296447754,0.43995001912117004
1752116321346714400,7.85871435546875,9.319950103759766,-2.653050184249878,0.7300500273704529
1752116321356568000,7.868568115234375,9.48705005645752,-2.7270002365112305,-0.14595000445842743
1752116321366421800,7.878421875,9.544950485229492,-2.8350000381469727,0.43995001912117004
1752116321376275500,7.888275390625,9.41295051574707,-2.899050235748291,0.09795000404119492
1752116321386129200,7.898129150390625,9.717000007629395,-2.751000165939331,-0.24105000495910645
1752116321395982800,7.90798291015625,9.040050506591797,-2.7460501194000244,1.065000057220459
1752116321405836500,7.91783642578125,9.382050514221191,-2.8729500770568848,-0.28395000100135803
1752116321415690500,7.9276904296875,9.68595027923584,-2.668950080871582,0.32295000553131104
1752116321425544000,7.9375439453125,9.286050796508789,-2.7649500370025635,0.39195001125335693
1752116321435398000,7.94739794921875,9.562050819396973,-2.431950092315674,-0.11400000751018524
1752116321445251600,7.95725146484375,8.80305004119873,-2.4250500202178955,1.4959501028060913
1752116321455105300,7.967105224609375,9.319950103759766,-2.6359500885009766,-0.49500003457069397
1752116321464959000,7.976958984375,9.25005054473877,-2.461050033569336,1.0030500888824463
1752116321474812700,7.986812744140625,9.432000160217285,-2.5759501457214355,0.031050002202391624
1752116321484666400,7.996666259765625,9.478050231933594,-2.473050117492676,0.4230000078678131
1752116321494520000,8.00652001953125,9.624000549316406,-2.533050060272217,0.9070500135421753
1752116321504373800,8.016373779296876,9.732000350952148,-2.350950002670288,-0.031050002202391624
1752116321514227500,8.0262275390625,9.484950065612793,-2.5350000858306885,1.294950008392334
1752116321524081200,8.0360810546875,9.616950035095215,-2.31000018119812,0.0019500000635161996
1752116321533935000,8.04593505859375,9.484950065612793,-2.4870002269744873,1.675950050354004
1752116321543788500,8.05578857421875,9.68595027923584,-2.344050168991089,-0.3660000264644623
1752116321553642200,8.065642333984375,9.427050590515137,-2.3610000610351562,1.3000500202178955
1752116321563496000,8.075495849609375,9.523050308227539,-2.2740001678466797,-0.07605000585317612
1752116321573350000,8.085349853515625,9.600000381469727,-2.1450002193450928,1.2109500169754028
1752116321583203600,8.09520361328125,9.652050018310547,-2.052000045776367,0.1360500007867813
1752116321593057300,8.105057373046876,9.862950325012207,-1.8720000982284546,0.7990500330924988
1752116321602911000,8.114910888671876,9.657000541687012,-1.7860500812530518,0.33195000886917114
1752116321612764700,8.1247646484375,9.838950157165527,-1.6900501251220703,0.6840000152587891
1752116321622618400,8.134618408203124,9.652050018310547,-1.6330500841140747,0.49995002150535583
1752116321632472000,8.14447216796875,9.946950912475586,-1.5630000829696655,0.5530500411987305
1752116321642325800,8.15432568359375,9.286050796508789,-1.4839500188827515,0.9960000514984131
1752116321652179700,8.1641796875,9.925050735473633,-1.4770500659942627,0.45705002546310425
1752116321662033400,8.174033447265625,9.562050819396973,-1.4149500131607056,0.8730000257492065
1752116321671887000,8.18388720703125,9.906000137329102,-1.519950032234192,0.687000036239624
1752116321681740800,8.19374072265625,9.892050743103027,-1.4550000429153442,0.8110500574111938
1752116321691594500,8.203594482421876,9.873000144958496,-1.6060501337051392,0.7230000495910645
1752116321701448200,8.2134482421875,10.162050247192383,-1.4770500659942627,0.6769500374794006
1752116321711302000,8.223302001953124,9.724050521850586,-1.4080500602722168,0.9400500655174255
1752116321721155300,8.2331552734375,10.119000434875488,-1.3450500965118408,0.6840000152587891
1752116321731009300,8.24300927734375,9.802950859069824,-1.1010000705718994,0.6240000128746033
1752116321740863000,8.252863037109375,9.693000793457031,-1.0720500946044922,0.8610000610351562
1752116321750716700,8.262716552734375,9.766950607299805,-0.9169500470161438,0.6150000095367432
1752116321760570400,8.2725703125,9.64995002746582,-0.7710000276565552,0.6460500359535217
1752116321770424000,8.282424072265625,9.861000061035156,-0.7110000252723694,0.8059500455856323
1752116321780277800,8.29227783203125,9.688050270080566,-0.5500500202178955,0.8209500312805176
1752116321790131700,8.302131591796876,9.789000511169434,-0.6439500451087952,1.1770501136779785
1752116321799985400,8.3119853515625,9.95895004272461,-0.6030000448226929,0.8640000224113464
1752116321809839000,8.321839111328124,9.817950248718262,-0.5839500427246094,1.1149500608444214
1752116321819692800,8.33169287109375,9.880050659179688,-0.7969500422477722,1.2130500078201294
1752116321829546500,8.34154638671875,10.057050704956055,-0.661050021648407,0.6390000581741333
1752116321839400200,8.351400146484375,9.789000511169434,-0.6409500241279602,1.5630000829696655
1752116321849254000,8.36125390625,10.051950454711914,-0.703950047492981,1.1370000839233398
1752116321859107600,8.371107666015625,10.258050918579102,-0.5719500184059143,0.9930000305175781
1752116321868961300,8.380961181640625,9.612000465393066,-0.7060500383377075,1.7209501266479492
1752116321878815000,8.39081494140625,10.143000602722168,-0.5530500411987305,0.7080000042915344
1752116321888669000,8.4006689453125,10.069050788879395,-0.3850500285625458,1.0960500240325928
1752116321898522600,8.410522705078124,9.496950149536133,-0.40905001759529114,1.390950083732605
1752116321908376300,8.420376220703124,10.32300090789795,-0.08595000207424164,0.7350000143051147
1752116321918230000,8.43022998046875,9.700050354003906,-0.30105000734329224,1.8859500885009766
1752116321928083700,8.440083740234375,10.093050003051758,-0.4810500144958496,1.0630500316619873
1752116321937937400,8.4499375,10.165050506591797,-0.32805001735687256,1.4410500526428223
1752116321947791000,8.459791015625,9.523050308227539,-0.7849500179290771,1.8259501457214355
1752116321957644800,8.469644775390625,10.170000076293945,-0.7060500383377075,0.7150500416755676
1752116321967498500,8.47949853515625,9.556950569152832,-0.5670000314712524,2.190000057220459
1752116321977352200,8.489352294921876,9.550050735473633,-0.7660500407218933,1.8340500593185425
1752116321987206100,8.4992060546875,10.300950050354004,-0.5890500545501709,1.4190000295639038
1752116321997060000,8.50906005859375,9.223950386047363,-0.4710000157356262,2.640000104904175
1752116322006913500,8.51891357421875,10.27695083618164,-0.18900001049041748,1.1340000629425049
1752116322016767200,8.528767333984375,9.834000587463379,0.12600000202655792,1.5799500942230225
1752116322026621000,8.538620849609375,9.087000846862793,0.32505002617836,1.8169500827789307
1752116322036475000,8.548474853515625,9.934950828552246,0.6600000262260437,0.9640500545501709
1752116322046328300,8.558328369140625,8.85300064086914,0.5040000081062317,2.0629501342773438
1752116322056182000,8.56818212890625,9.592950820922852,0.4210500121116638,1.2660000324249268
1752116322066035700,8.57803564453125,9.523050308227539,0.31800001859664917,1.735050082206726
1752116322075889700,8.5878896484375,9.315000534057617,0.1399500072002411,1.7160000801086426
1752116322085743000,8.5977431640625,10.069050788879395,0.26295000314712524,1.0270500183105469
1752116322095597000,8.60759716796875,9.375,0.1879500150680542,2.02305006980896
1752116322105450500,8.617450439453124,10.006950378417969,0.046950001269578934,1.2799500226974487
1752116322115304400,8.627304443359375,10.327950477600098,0.09000000357627869,1.3450500965118408
1752116322125158100,8.637158203125,9.844050407409668,-0.05505000427365303,1.9990501403808594
1752116322135011800,8.64701171875,10.8589506149292,-0.028950002044439316,1.1539500951766968
1752116322144865500,8.656865478515625,10.258050918579102,-0.08100000023841858,1.9270501136779785
1752116322154719500,8.666719482421875,10.306050300598145,-0.1189500093460083,1.6320000886917114
1752116322164573000,8.676572998046876,10.572000503540039,0.05400000140070915,1.636950135231018
1752116322174427000,8.686427001953126,9.894000053405762,0.07800000160932541,1.9750500917434692
1752116322184280300,8.6962802734375,10.52595043182373,0.20295001566410065,1.327950119972229
1752116322194134000,8.706134033203124,9.913050651550293,0.3679500222206116,2.2290000915527344
1752116322203988000,8.715988037109375,10.030950546264648,0.24300001561641693,1.7070001363754272
1752116322213841700,8.725841552734375,10.198050498962402,0.2580000162124634,1.7230501174926758
1752116322223695400,8.7356953125,9.358050346374512,0.21705001592636108,2.2480502128601074
1752116322233549000,8.745549072265625,10.267950057983398,-0.037950001657009125,1.2709500789642334
1752116322243402800,8.75540283203125,9.945000648498535,0.14805001020431519,1.807050108909607
1752116322253256400,8.76525634765625,9.933000564575195,0.21195000410079956,1.6950000524520874
1752116322263110100,8.775110107421876,10.273050308227539,0.28905001282691956,1.5799500942230225
1752116322272964000,8.784964111328126,9.772050857543945,0.08100000023841858,1.9009500741958618
1752116322282817800,8.79481787109375,10.404000282287598,-0.11205000430345535,1.024049997329712
1752116322292671500,8.80467138671875,9.910950660705566,-0.17205001413822174,1.5870001316070557
1752116322302525000,8.81452490234375,10.191000938415527,-0.6820500493049622,0.7560000419616699
1752116322312379000,8.82437890625,10.431000709533691,-0.505050003528595,0.9169500470161438
1752116322322232600,8.834232666015625,9.8899507522583,-0.26805001497268677,1.6920000314712524
1752116322332086300,8.844086181640625,10.603050231933594,-0.1770000010728836,0.9120000600814819
1752116322341940000,8.85393994140625,10.270050048828125,0.037950001657009125,1.596000075340271
1752116322351793700,8.863793701171875,10.411050796508789,-0.13395000994205475,0.9430500268936157
1752116322361647600,8.873647705078126,10.368000030517578,-0.10305000841617584,0.895050048828125
1752116322371501300,8.883501220703126,9.934950828552246,-0.34905001521110535,1.0840500593185425
1752116322381354800,8.893354736328124,10.414050102233887,-0.22995001077651978,0.7780500650405884
1752116322391208700,8.903208740234374,9.778950691223145,-0.1770000010728836,1.807050108909607
1752116322401062400,8.9130625,10.404000282287598,-0.48600003123283386,1.01895010471344
1752116322410916000,8.922916015625,10.206000328063965,-0.25394999980926514,1.4839500188827515
1752116322420769500,8.93276953125,9.874950408935547,-0.13905000686645508,1.7470500469207764
1752116322430623500,8.94262353515625,9.916050910949707,0.006000000052154064,1.4790000915527344
1752116322440477200,8.952477294921875,9.298050880432129,0.022950001060962677,2.1880500316619873
1752116322450331000,8.962330810546876,9.865950584411621,0.021000001579523087,1.6060501337051392
1752116322460184600,8.9721845703125,9.127950668334961,0.04500000178813934,2.616000175476074
1752116322470038300,8.982038330078124,9.801000595092773,-0.21000000834465027,2.095050096511841
1752116322479892000,8.99189208984375,10.01205062866211,-0.18405000865459442,2.2960500717163086
1752116322489746000,9.001745849609375,9.801000595092773,-0.3450000286102295,2.6520001888275146
1752116322499599400,9.011599365234375,10.615050315856934,-0.4710000157356262,1.9530000686645508
1752116322509453300,9.021453369140625,10.117050170898438,-0.45900002121925354,2.442000150680542
1752116322519306800,9.031306640625,10.648950576782227,-0.18405000865459442,2.0590500831604004
1752116322529160700,9.04116064453125,10.062000274658203,0.2939999997615814,2.5639500617980957
1752116322539014400,9.051014404296875,9.9660005569458,0.35100001096725464,2.3170502185821533
1752116322548868000,9.0608681640625,9.669000625610352,0.5239500403404236,2.4370501041412354
1752116322558721800,9.0707216796875,8.890950202941895,0.5689499974250793,2.760000228881836
1752116322568575500,9.080575439453124,9.133049964904785,0.35805001854896545,2.3460001945495605
1752116322578429200,9.09042919921875,8.712000846862793,0.3130500018596649,2.703000068664551
1752116322588283000,9.100282958984375,9.058950424194336,-0.14595000445842743,2.4079501628875732
1752116322598136600,9.110136474609375,9.382050514221191,-0.2179500162601471,2.121000051498413
1752116322607990500,9.119990478515625,9.688050270080566,-0.40905001759529114,1.9870500564575195
1752116322617844200,9.12984423828125,10.498050689697266,-0.1099500060081482,1.4820001125335693
1752116322627698000,9.139697998046875,9.877950668334961,0.3060000240802765,1.9939501285552979
1752116322637551600,9.149551513671875,10.489950180053711,0.27000001072883606,1.1820000410079956
1752116322647405300,9.1594052734375,10.12695026397705,0.3820500075817108,1.4599500894546509
1752116322657259000,9.169259033203126,9.6670503616333,0.16905000805854797,1.4770500659942627
1752116322667113000,9.179113037109374,9.379950523376465,-0.10305000841617584,1.0579500198364258
1752116322676966700,9.188966552734374,8.886000633239746,-0.45000001788139343,1.489050030708313
1752116322686820000,9.198820068359375,9.37695026397705,-0.7320000529289246,1.051050066947937
1752116322696674000,9.208674072265625,8.973000526428223,-0.534000039100647,1.6609500646591187
1752116322706527700,9.21852783203125,9.454050064086914,-0.675000011920929,1.0630500316619873
1752116322716381200,9.228381103515625,9.856050491333008,-0.39705002307891846,1.0980000495910645
1752116322726235100,9.238235107421875,9.394050598144531,-0.1960500031709671,1.6470000743865967
1752116322736088800,9.2480888671875,10.23705005645752,-0.18405000865459442,0.7249500155448914
1752116322745942500,9.257942626953126,9.471000671386719,-0.0690000057220459,1.5750000476837158
1752116322755796200,9.267796142578124,9.826950073242188,-0.1360500007867813,1.2490500211715698
1752116322765650000,9.27764990234375,9.813000679016113,0.09000000357627869,1.675950050354004
1752116322775503600,9.287503662109375,9.490050315856934,0.037950001657009125,2.073000192642212
1752116322785357300,9.297357421875,10.372950553894043,0.09495000541210175,1.714050054550171
1752116322795211000,9.3072109375,10.033050537109375,0.12405000627040863,2.5039501190185547
1752116322805064700,9.317064697265625,10.929000854492188,-0.3540000021457672,1.7500500679016113
1752116322814918700,9.326918701171875,10.941000938415527,-0.33705002069473267,2.101950168609619
1752116322824772400,9.3367724609375,10.50195026397705,-0.33705002069473267,2.9250001907348633
1752116322834625800,9.346625732421876,10.596000671386719,-0.3949500322341919,2.5609500408172607
1752116322844479700,9.356479736328126,9.916050910949707,-0.1360500007867813,3.1840500831604004
1752116322854333200,9.366333251953124,9.66195011138916,-0.019050000235438347,3.1600501537323
1752116322864187100,9.376187255859374,9.631050109863281,0.23895001411437988,2.989950180053711
1752116322874040600,9.38604052734375,9.054000854492188,-0.019050000235438347,3.076050043106079
1752116322883894500,9.39589453125,9.612000465393066,-0.07905000448226929,2.095050096511841
1752116322893748000,9.405748046875,9.022950172424316,0.1399500072002411,2.770050048828125
1752116322903602000,9.415601806640625,9.277050018310547,-0.025950001552700996,2.121000051498413
1752116322913455600,9.42545556640625,9.805950164794922,0.10200000554323196,1.6200001239776611
1752116322923309300,9.435309326171875,9.063000679016113,0.22005000710487366,2.7430500984191895
1752116322933163000,9.4451630859375,10.158000946044922,-0.11700000613927841,1.4860501289367676
1752116322943016700,9.4550166015625,10.13895034790039,0.009000000543892384,1.7209501266479492
1752116322952870400,9.464870361328124,9.562050819396973,-0.04005000367760658,2.230950117111206
1752116322962724400,9.474724365234374,10.708050727844238,0,1.0170000791549683
1752116322972577800,9.484577880859375,9.97605037689209,-0.13905000686645508,1.8379501104354858
1752116322982431700,9.494431640625,10.342050552368164,-0.2749500274658203,1.4770500659942627
1752116322992285400,9.504285400390625,10.771050453186035,-0.32505002617836,1.5750000476837158
1752116323002139100,9.51413916015625,10.036050796508789,-0.8830500245094299,2.200050115585327
1752116323011992800,9.523992919921875,10.572000503540039,-1.0290000438690186,1.2679500579833984
1752116323021846500,9.533846435546875,9.853950500488281,-0.7950000166893005,2.1349501609802246
1752116323031700500,9.543700439453126,8.87700080871582,-0.7680000066757202,2.3839499950408936
1752116323041554000,9.553553955078126,9.346050262451172,-0.4330500066280365,1.3950001001358032
1752116323051407600,9.56340771484375,8.577000617980957,-0.1360500007867813,2.751000165939331
1752116323061261600,9.573261474609374,8.874000549316406,-0.4039500057697296,1.8840000629425049
1752116323071115300,9.583115234375,10.081050872802734,-0.37605002522468567,1.1970000267028809
1752116323080969000,9.592968994140625,9.789000511169434,-0.7110000252723694,2.0710501670837402
1752116323090822700,9.60282275390625,11.0149507522583,-1.0530000925064087,0.7630500197410583
1752116323100676400,9.61267626953125,11.302050590515137,-1.1130000352859497,1.065000057220459
1752116323110530000,9.622530029296875,10.753950119018555,-1.2619500160217285,1.6870501041412354
1752116323120383700,9.6323837890625,11.107950210571289,-0.9480000734329224,0.9720000624656677
1752116323130237400,9.642237548828126,10.39995002746582,-0.4909500181674957,1.7089500427246094
1752116323140091100,9.652091064453124,8.974950790405273,-0.021000001579523087,2.6620500087738037
1752116323149944800,9.66194482421875,9.154050827026367,0.6240000128746033,1.90500009059906
1752116323159798800,9.671798828125,8.259000778198242,0.46605002880096436,2.6620500087738037
1752116323169652500,9.681652587890625,7.801950454711914,0.10695000737905502,2.332050085067749
1752116323179506200,9.691506103515625,8.410050392150879,0.006000000052154064,1.5769500732421875
1752116323189359600,9.701359619140625,8.154000282287598,-0.4120500087738037,2.710050106048584
1752116323199213600,9.711213623046875,9.17400074005127,-0.7230000495910645,2.3650500774383545
1752116323209067000,9.72106689453125,10.819050788879395,-0.9480000734329224,2.0080502033233643
1752116323218921000,9.7309208984375,11.613000869750977,-1.446000099182129,2.5759501457214355
1752116323228774700,9.740774658203126,12.7339506149292,-1.8390001058578491,1.9009500741958618
1752116323238628400,9.75062841796875,12.916050910949707,-1.8720000982284546,1.738050103187561
1752116323248482000,9.76048193359375,11.910000801086426,-1.9890000820159912,1.9009500741958618
1752116323258335700,9.770335693359375,10.596000671386719,-1.5130500793457031,1.5319501161575317
1752116323268189400,9.780189453125,9.805950164794922,-0.6769500374794006,1.1850000619888306
1752116323278043400,9.79004345703125,7.881000518798828,-0.25394999980926514,2.200050115585327
1752116323287897000,9.79989697265625,7.282050132751465,0.39900001883506775,1.4740500450134277
1752116323297750800,9.809750732421875,6.873000144958496,0.8640000224113464,1.9410001039505005
1752116323307604500,9.8196044921875,6.388950347900391,0.921000063419342,2.2170000076293945
1752116323317458200,9.829458251953126,7.111950397491455,0.9400500655174255,1.6710001230239868
1752116323327312100,9.83931201171875,8.138999938964844,0.8230500221252441,1.3399500846862793
1752116323337165600,9.84916552734375,8.482049942016602,0.2749500274658203,1.6350001096725464
1752116323347019500,9.85901953125,9.595050811767578,-0.19395001232624054,1.4910000562667847
1752116323356873000,9.868873046875,11.343000411987305,-0.39705002307891846,1.1179500818252563
1752116323366727000,9.878726806640625,11.13705062866211,-1.120050072669983,2.2789502143859863
1752116323376580600,9.88858056640625,11.66100025177002,-1.7640000581741333,2.01104998588562
1752116323386434300,9.898434326171875,12.049050331115723,-2.0280001163482666,1.8450000286102295
1752116323396288000,9.9082880859375,11.06505012512207,-2.121000051498413,2.2330501079559326
1752116323406141700,9.9181416015625,10.054950714111328,-1.8480000495910645,2.3080501556396484
1752116323415995600,9.92799560546875,9.829950332641602,-1.5180001258850098,1.9459501504898071
1752116323425849000,9.93784912109375,9.418050765991211,-1.3260000944137573,2.0779500007629395
1752116323435702800,9.947702880859374,8.949000358581543,-1.3170000314712524,2.4130501747131348
1752116323445556700,9.957556640625,9.39900016784668,-1.3210500478744507,1.5250500440597534
1752116323455410400,9.967410400390625,10.243950843811035,-1.264050006866455,0.6030000448226929
1752116323465264000,9.97726416015625,10.01400089263916,-1.3410000801086426,1.3000500202178955
1752116323475117800,9.987117919921875,9.364950180053711,-1.3789501190185547,1.4359500408172607
1752116323484971500,9.996971435546875,10.062000274658203,-1.0750499963760376,0.3660000264644623
1752116323494825200,10.0068251953125,10.309050559997559,-0.8070000410079956,0.9379500150680542
1752116323504679000,10.016678955078126,9.328950881958008,-0.8740500211715698,1.6900501251220703
1752116323514532600,10.02653271484375,9.243000030517578,-1.048050045967102,1.5610500574111938
1752116323524386600,10.036386474609374,10.155000686645508,-0.9289500713348389,0.9169500470161438
1752116323534240300,10.046240234375,10.13895034790039,-0.7830000519752502,1.4550000429153442
1752116323544093700,10.05609375,9.684000015258789,-0.7830000519752502,2.299950122833252
1752116323553947600,10.06594775390625,10.31100082397461,-0.5940000414848328,1.968000054359436
1752116323563801300,10.07580126953125,11.709000587463379,-0.34200000762939453,1.4980500936508179
1752116323573655000,10.085655029296875,11.182050704956055,-0.32100000977516174,2.820000171661377
1752116323583508700,10.0955087890625,10.158000946044922,-0.6010500192642212,3.2530500888824463
1752116323593362400,10.105362548828126,10.318050384521484,-0.6030000448226929,2.31000018119812
1752116323603216100,10.115216064453126,9.981000900268555,-0.4620000123977661,2.1570000648498535
1752116323613069800,10.12506982421875,8.653950691223145,-0.6649500131607056,2.4870002269744873
1752116323622923500,10.134923583984374,7.609950542449951,-1.0360500812530518,2.7150001525878906
1752116323632777500,10.144777587890625,8.38800048828125,-0.9720000624656677,1.76895010471344
1752116323642631200,10.154631103515625,9.022950172424316,-0.7950000166893005,1.4359500408172607
1752116323652484900,10.16448486328125,8.086950302124023,-0.9480000734329224,2.5039501190185547
1752116323662338600,10.174338623046875,8.278050422668457,-1.1130000352859497,2.0560500621795654
1752116323672192300,10.184192138671875,9.858000755310059,-0.7279500365257263,0.8470500111579895
1752116323682046000,10.1940458984375,10.51395034790039,-0.44805002212524414,0.6910500526428223
1752116323691899600,10.203899658203126,9.757950782775879,-0.7710000276565552,1.2919501066207886
1752116323701753300,10.21375341796875,9.532950401306152,-1.264050006866455,1.327950119972229
1752116323711607000,10.22360693359375,10.22700023651123,-1.602000117301941,0.8640000224113464
1752116323721460700,10.233460693359374,10.677000045776367,-1.755000114440918,0.7660500407218933
1752116323731314400,10.243314453125,10.191000938415527,-1.755000114440918,1.4860501289367676
1752116323741168000,10.253168212890625,9.454050064086914,-2.0179500579833984,2.367000102996826
1752116323751022000,10.26302197265625,9.41100025177002,-2.4160501956939697,2.5879502296447754
1752116323760875800,10.272875732421875,10.645950317382812,-2.5069501399993896,1.9150501489639282
1752116323770729500,10.2827294921875,11.278050422668457,-2.442000150680542,1.9699500799179077
1752116323780583200,10.292583251953126,10.564950942993164,-2.578050136566162,2.956050157546997
1752116323790437000,10.30243701171875,10.110000610351562,-2.788950204849243,2.7049500942230225
1752116323800290600,10.31229052734375,10.54995059967041,-2.6140501499176025,1.9750500917434692
1752116323810144500,10.32214453125,11.38800048828125,-2.0779500007629395,1.051050066947937
1752116323819998000,10.331998046875,10.774950981140137,-1.5870001316070557,1.0049999952316284
1752116323829851600,10.3418515625,9.757950782775879,-1.055999994277954,1.0960500240325928
1752116323839705600,10.35170556640625,9.475050926208496,-0.3679500222206116,0.45900002121925354
1752116323849559300,10.361559326171875,9.604950904846191,0.10695000737905502,-0.1579500138759613
1752116323859413000,10.3714130859375,9.552000045776367,0.34200000762939453,-0.33705002069473267
1752116323869266700,10.3812666015625,8.644050598144531,0.2670000195503235,0.34200000762939453
1752116323879120400,10.391120361328126,7.6870503425598145,0.013950000517070293,1.0770000219345093
1752116323888974000,10.40097412109375,7.249050140380859,-0.3540000021457672,1.221000075340271
1752116323898827800,10.410827880859374,7.25100040435791,-0.5890500545501709,1.3240500688552856
1752116323908681500,10.420681396484374,7.344000339508057,-0.5670000314712524,1.204050064086914
1752116323918535200,10.43053515625,7.375950336456299,-0.42600002884864807,1.1080501079559326
1752116323928388900,10.440388916015625,6.978000164031982,-0.34905001521110535,1.1100000143051147
1752116323938242600,10.45024267578125,6.945000171661377,-0.3520500063896179,0.4159500300884247
1752116323948096300,10.46009619140625,8.029050827026367,-0.3060000240802765,-0.8880000710487366
1752116323957950000,10.469949951171875,8.416950225830078,-0.0880500078201294,-1.0360500812530518
1752116323967804000,10.479803955078125,6.456000328063965,-0.16695000231266022,0.4140000343322754
1752116323977657600,10.48965771484375,5.251950263977051,-0.26805001497268677,0.5020500421524048
1752116323987511000,10.499510986328126,6.705000400543213,0.013950000517070293,-0.6820500493049622
1752116323997365000,10.509364990234374,6.379050254821777,0.14295001327991486,0.15495000779628754
1752116324007218700,10.51921875,5.017050266265869,-0.1290000081062317,1.1970000267028809
1752116324017072600,10.52907275390625,5.520000457763672,-0.43995001912117004,0.6360000371932983
1752116324026926000,10.538926025390625,6.516000270843506,-0.39705002307891846,0.19095000624656677
1752116324036780000,10.548780029296875,6.274050235748291,-0.4930500090122223,0.7230000495910645
1752116324046633500,10.558633544921875,7.207950115203857,-0.673050045967102,0.8179500102996826
1752116324056487400,10.5684873046875,9.123000144958496,-1.2619500160217285,0.5209500193595886
1752116324066340900,10.5783408203125,10.984050750732422,-2.7150001525878906,0.8490000367164612
1752116324076194800,10.58819482421875,10.749000549316406,-4.764000415802002,2.728950023651123
1752116324086048500,10.598048583984376,11.122950553894043,-6.226950168609619,2.491950035095215
1752116324095902200,10.607902099609374,12.115950584411621,-6.756000518798828,1.2520500421524048
1752116324105756000,10.617755859375,11.476950645446777,-6.610050201416016,1.7400001287460327
1752116324115609600,10.627609619140625,11.8410005569458,-6.88800048828125,1.4029500484466553
1752116324125463300,10.63746337890625,14.701951026916504,-7.4410505294799805,0.2530499994754791
1752116324135317000,10.64731689453125,16.141050338745117,-9.402000427246094,1.4479501247406006
1752116324145170700,10.657170654296875,16.378049850463867,-11.236050605773926,2.200050115585327
1752116324155024600,10.667024658203125,15.802950859069824,-10.944000244140625,1.9990501403808594
1752116324164878000,10.676878173828126,13.777950286865234,-9.406949996948242,3.2220001220703125
1752116324174732000,10.68673193359375,12.535050392150879,-6.796950340270996,3.5689501762390137
1752116324184585700,10.696585693359374,12.471000671386719,-5.073000431060791,3.2320501804351807
1752116324194439400,10.706439453125,11.84595012664795,-4.666050434112549,3.9400501251220703
1752116324204292900,10.71629296875,11.380950927734375,-3.7320001125335693,3.4420502185821533
1752116324214146800,10.726146728515625,10.392000198364258,-2.3989500999450684,2.6140501499176025
1752116324224000500,10.73600048828125,7.621950149536133,-1.7329500913619995,2.230950117111206
1752116324233854200,10.745854248046875,5.5219502449035645,-1.585050106048584,0.27000001072883606
1752116324243708200,10.755708251953125,4.330049991607666,-0.9600000381469727,-0.7300500273704529
1752116324253561900,10.765561767578125,3.3510000705718994,-0.0499500036239624,-1.0720500946044922
1752116324263415600,10.77541552734375,5.197050094604492,1.38795006275177,-2.7840001583099365
1752116324273269200,10.785269287109376,5.776050090789795,1.9390500783920288,-1.2610501050949097
1752116324283123000,10.795123046875,6.423000335693359,1.0600500106811523,-0.8329500555992126
1752116324292976600,10.8049765625,7.588950157165527,0.33195000886917114,-1.5390000343322754
1752116324302830600,10.81483056640625,6.874950408935547,-0.5580000281333923,-1.636950135231018
1752116324312684000,10.82468408203125,7.063950538635254,-1.0459500551223755,-2.7910501956939697
1752116324322537700,10.834537841796875,6.3319501876831055,-1.1680500507354736,-2.5230000019073486
1752116324332391400,10.844391357421875,6.496950149536133,-0.8520000576972961,-2.209050178527832
1752116324342245400,10.854245361328125,7.3560004234313965,-0.5790000557899475,-1.390950083732605
1752116324352099000,10.86409912109375,9.741000175476074,0.0499500036239624,-0.7200000286102295
1752116324361952800,10.873952880859376,11.446050643920898,-0.1290000081062317,0.04500000178813934
1752116324371806500,10.883806396484376,13.53600025177002,-2.200050115585327,0.2939999997615814
1752116324381660200,10.89366015625,14.230051040649414,-4.0920000076293945,1.4700000286102295
1752116324391513900,10.903513916015624,13.54800033569336,-4.558050155639648,2.8849501609802246
1752116324401367800,10.913367919921875,12.834000587463379,-4.0320000648498535,3.7849502563476562
1752116324411221200,10.92322119140625,11.242050170898438,-3.189000129699707,4.555950164794922
1752116324421075200,10.9330751953125,10.665000915527344,-2.2099502086639404,4.174950122833252
1752116324430929000,10.942928955078125,9.96405029296875,-1.3669500350952148,3.766050100326538
1752116324440782600,10.952782470703125,9.921000480651855,-0.47895002365112305,3.01200008392334
1752116324450636300,10.96263623046875,9.585000038146973,0.15195000171661377,2.92995023727417
1752116324460490200,10.972490234375,9.660000801086426,0.7219500541687012,2.949000120162964
1752116324470343700,10.98234375,9.42495059967041,1.1959500312805176,2.7550501823425293
1752116324480197400,10.992197265625,8.884050369262695,1.5580500364303589,2.86995005607605
1752116324490051000,11.002051025390625,8.257050514221191,1.6660500764846802,2.710050106048584
1752116324499905000,11.011905029296875,8.259000778198242,1.7280000448226929,2.1499500274658203
1752116324509758700,11.0217587890625,8.518050193786621,1.4719500541687012,1.5529500246047974
1752116324519612400,11.0316123046875,8.809950828552246,1.311000108718872,1.374000072479248
1752116324529466000,11.041466064453125,8.758950233459473,0.5710500478744507,1.90500009059906
1752116324539319800,11.05131982421875,9.292950630187988,-0.2939999997615814,1.812000036239624
1752116324549173500,11.061173583984376,8.982000350952148,-1.4220000505447388,2.253000020980835
1752116324559027200,11.071027099609376,9.205050468444824,-1.9369500875473022,1.8960001468658447
1752116324568881200,11.080881103515624,8.793000221252441,-2.205000162124634,1.968000054359436
1752116324578734800,11.09073486328125,9.616950035095215,-2.133000135421753,1.3639500141143799
1752116324588588500,11.100588623046875,9.769950866699219,-1.6210501194000244,1.6180500984191895
1752116324598442200,11.110442138671875,10.23900032043457,-0.8550000190734863,1.429050087928772
1752116324608296000,11.1202958984375,10.2610502243042,-0.7710000276565552,1.6660500764846802
1752116324618149600,11.130149658203125,11.238000869750977,-1.0290000438690186,0.7750500440597534
1752116324628003600,11.140003662109375,11.050950050354004,-1.4410500526428223,0.5620500445365906
1752116324637857300,11.149857177734376,11.010000228881836,-1.7400001287460327,0.3850500285625458
1752116324647711000,11.1597109375,10.407000541687012,-2.0400002002716064,1.2919501066207886
1752116324657564700,11.169564697265624,11.10105037689209,-2.2549500465393066,1.4220000505447388
1752116324667418400,11.17941845703125,11.320950508117676,-2.3560500144958496,1.7430000305175781
1752116324677272000,11.18927197265625,10.735050201416016,-2.3490002155303955,2.4630000591278076
1752116324687126000,11.1991259765625,10.003950119018555,-1.9750500917434692,2.9880001544952393
1752116324696979700,11.208979736328125,9.841950416564941,-1.6279500722885132,2.8969502449035645
1752116324706833200,11.218833251953125,9.391950607299805,-1.5130500793457031,2.1660001277923584
1752116324716686800,11.228686767578125,8.427000045776367,-1.908000111579895,2.0490000247955322
1752116324726540800,11.238540771484375,7.759050369262695,-2.1259500980377197,2.1040501594543457
1752116324736394500,11.24839453125,7.692000389099121,-2.6290500164031982,1.8169500827789307
1752116324746248200,11.258248291015626,8.260950088500977,-2.698050022125244,1.38795006275177
1752116324756102000,11.268101806640624,8.038949966430664,-2.6449501514434814,1.7329500913619995
1752116324765955600,11.27795556640625,9.075000762939453,-2.272050142288208,1.738050103187561
1752116324775809300,11.287809326171875,9.255000114440918,-2.111999988555908,2.461050033569336
1752116324785663000,11.2976630859375,10.459050178527832,-1.8409501314163208,1.6350001096725464
1752116324795516700,11.3075166015625,10.486050605773926,-1.9459501504898071,1.1680500507354736
1752116324805370600,11.31737060546875,11.07705020904541,-1.8979500532150269,-0.4350000321865082
1752116324815224300,11.327224365234375,10.59795093536377,-1.7160000801086426,-0.037950001657009125
1752116324825078000,11.337078125,10.195950508117676,-1.8840000629425049,0.33195000886917114
1752116324834931700,11.346931640625,9.796050071716309,-2.0779500007629395,1.162950038909912
1752116324844785700,11.35678564453125,9.40095043182373,-2.491950035095215,1.6110000610351562
1752116324854639000,11.36663916015625,9.517950057983398,-2.4060001373291016,1.4100000858306885
1752116324864493000,11.3764931640625,8.962950706481934,-2.45205020904541,1.8409501314163208
1752116324874346800,11.3863466796875,9.171000480651855,-1.9650001525878906,1.2280501127243042
1752116324884200400,11.396200439453125,8.830950736999512,-1.3290001153945923,1.8720000982284546
1752116324894054100,11.40605419921875,9.031949996948242,-0.43995001912117004,1.6470000743865967
1752116324903907800,11.415907958984375,9.031949996948242,-0.2370000183582306,2.341050148010254
1752116324913761500,11.425761474609375,9.945000648498535,-0.49500003457069397,1.8409501314163208
1752116324923615200,11.435615234375,10.584000587463379,-1.0939500331878662,1.7899501323699951
1752116324933469200,11.44546923828125,10.443000793457031,-1.9939501285552979,1.714050054550171
1752116324943323000,11.455322998046874,10.476000785827637,-2.362950086593628,1.519950032234192
1752116324953176600,11.465176513671874,10.129050254821777,-2.9140501022338867,2.0299501419067383
1752116324963030300,11.4750302734375,10.27500057220459,-2.968950033187866,1.7089500427246094
1752116324972884000,11.484884033203125,9.826950073242188,-2.6050500869750977,2.7430500984191895
1752116324982737700,11.494737548828125,10.807050704956055,-1.5610500574111938,2.401050090789795
1752116324992591600,11.504591552734375,11.307000160217285,-0.34905001521110535,2.6569502353668213
1752116325002445300,11.5144453125,11.022000312805176,0.35100001096725464,2.16195011138916
1752116325012299000,11.524299072265626,10.282050132751465,0.4350000321865082,2.0749499797821045
1752116325022152700,11.534152587890626,10.086000442504883,0.5550000071525574,1.5649501085281372
1752116325032006400,11.54400634765625,9.468000411987305,0.7680000066757202,1.6320000886917114
1752116325041860000,11.553860107421874,8.701950073242188,0.5209500193595886,2.371950149536133
1752116325051713800,11.5637138671875,9.352950096130371,0.19995000958442688,2.287950038909912
1752116325061567500,11.5735673828125,9.813000679016113,-0.18900001049041748,2.6640000343322754
1752116325071421200,11.583421142578125,10.648950576782227,-0.4240500330924988,3.007050037384033
1752116325081275100,11.593275146484375,10.603050231933594,-0.3349500298500061,2.8729500770568848
1752116325091128600,11.603128662109375,10.584000587463379,-0.43800002336502075,2.2960500717163086
1752116325100982500,11.612982421875,10.240950584411621,-0.3660000264644623,1.968000054359436
1752116325110836000,11.6228359375,9.4350004196167,-0.6150000095367432,2.458050012588501
1752116325120690000,11.63268994140625,9.44895076751709,-0.9910500645637512,1.8019500970840454
1752116325130543600,11.642543701171874,9.324000358581543,-1.0720500946044922,1.7640000581741333
1752116325140397300,11.652397216796874,9.265050888061523,-0.7969500422477722,1.9960501194000244
1752116325150251000,11.6622509765625,9.255000114440918,-0.2939999997615814,1.9560000896453857
1752116325160104700,11.672104736328125,9.210000038146973,-0.20295001566410065,2.479950189590454
1752116325169958400,11.68195849609375,10.318050384521484,-0.04500000178813934,1.8049501180648804
1752116325179812400,11.691812255859375,10.762950897216797,-0.4020000100135803,2.3050501346588135
1752116325189666000,11.701666015625,11.64900016784668,-1.1779500246047974,1.4380500316619873
1752116325199519700,11.711519775390625,11.518050193786621,-2.080049991607666,1.977000117301941
1752116325209373400,11.72137353515625,10.918950080871582,-2.5069501399993896,1.8649500608444214
1752116325219227100,11.73122705078125,9.742950439453125,-2.791950225830078,2.284050226211548
1752116325229080800,11.741080810546874,8.482049942016602,-3.3040502071380615,2.290950059890747
1752116325238934500,11.7509345703125,7.692000389099121,-3.547950267791748,1.977000117301941
1752116325248788500,11.76078857421875,6.925050258636475,-3.4210500717163086,2.101950168609619
1752116325258642200,11.77064208984375,7.738950252532959,-3.040950059890747,0.9960000514984131
1752116325268495600,11.78049560546875,8.740050315856934,-2.410950183868408,0.28905001282691956
1752116325278349600,11.790349609375,9.001049995422363,-2.245950222015381,0.7969500422477722
1752116325288203300,11.800203369140625,10.392000198364258,-1.9560000896453857,0.07395000010728836
1752116325298057000,11.810056884765626,10.344000816345215,-1.5580500364303589,0.3079500198364258
1752116325307910700,11.81991064453125,9.741000175476074,-1.3549500703811646,0.1579500138759613
1752116325317764400,11.829764404296874,8.874000549316406,-1.1320500373840332,0.05700000375509262
1752116325327618300,11.839618408203124,7.759050369262695,-1.0200001001358032,0.6940500140190125
1752116325337472000,11.849471923828125,8.002950668334961,-0.8740500211715698,0.4830000102519989
1752116325347325400,11.859325439453125,7.498050212860107,-1.3260000944137573,1.7590501308441162
1752116325357179400,11.869179443359375,7.869000434875488,-1.7239500284194946,1.7430000305175781
1752116325367033000,11.879033203125,7.960050582885742,-1.582050085067749,2.193000078201294
1752116325376887000,11.888886962890625,7.914000511169434,-1.5319501161575317,2.596950054168701
1752116325386740500,11.898740478515625,8.793000221252441,-1.0459500551223755,1.4410500526428223
1752116325396594400,11.908594482421876,8.836050033569336,-0.06000000238418579,1.4410500526428223
1752116325406448000,11.9184482421875,8.797950744628906,0.781950056552887,1.8259501457214355
1752116325416301800,11.9283017578125,10.083000183105469,1.234950065612793,1.599000096321106
1752116325426155500,11.938155517578124,10.038000106811523,0.781950056552887,2.4870002269744873
1752116325436009200,11.94800927734375,11.29995059967041,0.5160000324249268,2.0179500579833984
1752116325445863200,11.95786328125,11.893950462341309,0.07800000160932541,2.5570502281188965
1752116325455716600,11.967716552734375,11.695050239562988,-0.6289500594139099,2.419950008392334
1752116325465570600,11.977570556640625,11.42400074005127,-0.7279500365257263,2.200050115585327
1752116325475424000,11.987424072265625,10.320000648498535,-0.5149500370025635,3.706050157546997
1752116325485278000,11.99727783203125,10.105050086975098,-0.9240000247955322,3.6150002479553223
1752116325495131600,12.007131591796876,10.510050773620605,-1.2540000677108765,3.2719502449035645
1752116325504985300,12.0169853515625,9.799050331115723,-1.6489500999450684,3.838050127029419
1752116325514839000,12.026839111328124,10.28895092010498,-1.8649500608444214,1.7710500955581665
1752116325524692700,12.036692626953124,9.595050811767578,-1.672950029373169,2.0970001220703125
1752116325534546400,12.04654638671875,8.652000427246094,-1.5679501295089722,1.981950044631958
1752116325544400400,12.056400390625,9.253050804138184,-1.5130500793457031,0.6700500249862671
1752116325554253800,12.06625390625,8.653950691223145,-1.8240001201629639,1.3020000457763672
1752116325564107800,12.076107666015625,9.339000701904297,-1.3999500274658203,1.0530000925064087
1752116325573961500,12.08596142578125,10.432950019836426,-1.0890001058578491,1.672950029373169
1752116325583815200,12.095815185546876,10.285050392150879,-1.7260501384735107,2.1570000648498535
1752116325593668900,12.1056689453125,10.945050239562988,-2.1739501953125,0.5190000534057617
1752116325603522600,12.1155224609375,9.898950576782227,-2.1690001487731934,0.9570000171661377
1752116325613376300,12.125376220703124,8.946000099182129,-1.8769501447677612,0.9450000524520874
1752116325623230200,12.135230224609375,8.829000473022461,-1.4580000638961792,0.9070500135421753
1752116325633083600,12.145083740234375,7.909050464630127,-1.055999994277954,2.571000099182129
1752116325642937600,12.1549375,8.175000190734863,-1.237950086593628,2.020050048828125
1752116325652791000,12.164791015625,9.97800064086914,-1.3240500688552856,1.2400500774383545
1752116325662645000,12.17464501953125,9.195000648498535,-1.5730500221252441,2.9419500827789307
1752116325672498700,12.184498779296876,9.973050117492676,-1.921950101852417,1.201050043106079
1752116325682352400,12.194352294921876,10.797000885009766,-1.9609501361846924,0.8730000257492065
1752116325692206000,12.2042060546875,9.645000457763672,-2.083050012588501,1.3950001001358032
1752116325702060000,12.21406005859375,10.363950729370117,-2.218950033187866,0.6409500241279602
1752116325711913500,12.22391357421875,9.73905086517334,-1.894050121307373,1.7190001010894775
1752116325721767400,12.233767333984375,8.107950210571289,-1.3810501098632812,3.2920501232147217
1752116325731621000,12.24362109375,8.962950706481934,-0.8809500336647034,1.503000020980835
1752116325741474800,12.253474853515625,7.771050453186035,-0.7969500422477722,2.533050060272217
1752116325751328500,12.26332861328125,7.111950397491455,-0.9289500713348389,2.0299501419067383
1752116325761182200,12.27318212890625,7.846950531005859,-0.5359500050544739,0.8830500245094299
1752116325771036000,12.283035888671876,8.070000648498535,-0.5410500168800354,1.6800000667572021
1752116325780889900,12.292889892578126,8.30505084991455,-0.9529500603675842,2.1850500106811523
1752116325790743600,12.30274365234375,10.753950119018555,-1.162950038909912,1.264050006866455
1752116325800597200,12.31259716796875,10.909050941467285,-1.7569501399993896,2.3359501361846924
1752116325810451000,12.322450927734375,11.056050300598145,-2.31000018119812,1.7280000448226929
1752116325820304600,12.3323046875,11.647050857543945,-2.1739501953125,0.8809500336647034
1752116325830158600,12.34215869140625,10.060050010681152,-2.2579500675201416,1.807050108909607
1752116325840012000,12.352011962890625,9.609000205993652,-2.1640501022338867,1.1269500255584717
1752116325849866000,12.361865966796875,10.039950370788574,-1.7760001420974731,0.5119500160217285
1752116325859719700,12.3717197265625,9.11400032043457,-1.8840000629425049,1.9360500574111938
1752116325869573400,12.381573486328126,9.394050598144531,-1.429050087928772,1.9009500741958618
1752116325879427000,12.391427001953126,10.717950820922852,-0.7159500122070312,1.2919501066207886
1752116325889280800,12.40128076171875,10.644000053405762,-0.7369500398635864,1.8739501237869263
1752116325899134500,12.411134521484374,10.177050590515137,-1.1830500364303589,1.6639500856399536
1752116325908988200,12.42098828125,10.869000434875488,-1.4170501232147217,0.8470500111579895
1752116325918841900,12.430841796875,10.198050498962402,-2.1070501804351807,1.9720500707626343
1752116325928695800,12.44069580078125,9.930000305175781,-2.7460501194000244,1.141950011253357
1752116325938549200,12.45054931640625,10.179000854492188,-2.5189502239227295,0.9960000514984131
1752116325948403200,12.4604033203125,9.319950103759766,-2.2960500717163086,2.073000192642212
1752116325958256600,12.470256591796876,8.688000679016113,-1.6570501327514648,2.322000026702881
1752116325968110600,12.480110595703126,9.732000350952148,-0.7129500508308411,1.4359500408172607
1752116325977964300,12.48996435546875,8.43600082397461,-0.28005000948905945,2.4150002002716064
1752116325987818000,12.49981787109375,8.557950019836426,0.006000000052154064,1.596000075340271
1752116325997671700,12.509671630859375,9.21405029296875,0.2749500274658203,1.125
1752116326007525400,12.519525390625,9.358050346374512,0.022950001060962677,1.6990500688552856
1752116326017379000,12.529379150390625,9.25005054473877,-0.7609500288963318,2.4660000801086426
1752116326027233000,12.53923291015625,11.463000297546387,-1.38795006275177,1.3189500570297241
1752116326037086700,12.549086669921875,11.96505069732666,-2.0680501461029053,2.514000177383423
1752116326046940700,12.558940673828126,11.191950798034668,-2.3340001106262207,2.9830501079559326
1752116326056794000,12.568794189453126,11.326050758361816,-2.205000162124634,2.253000020980835
1752116326066648000,12.57864794921875,10.56705093383789,-1.8049501180648804,2.3479502201080322
1752116326076501800,12.588501708984374,9.307950019836426,-1.924950122833252,2.4870002269744873
1752116326086355200,12.598355224609374,9.049050331115723,-1.582050085067749,0.6840000152587891
1752116326096209200,12.608209228515625,8.716050148010254,-0.9409500360488892,1.078950047492981
1752116326106062800,12.618062744140625,7.878000259399414,-0.5239500403404236,2.140050172805786
1752116326115916500,12.62791650390625,8.63700008392334,-0.20805001258850098,1.7160000801086426
1752116326125770200,12.637770263671875,9.985050201416016,-0.39705002307891846,1.6920000314712524
1752116326135624000,12.6476240234375,9.841950416564941,-0.5620500445365906,2.596950054168701
1752116326145477600,12.6574775390625,9.868050575256348,-1.120050072669983,1.7500500679016113
1752116326155331600,12.66733154296875,10.693950653076172,-1.5150001049041748,0.4330500066280365
1752116326165185000,12.67718505859375,9.720000267028809,-1.968000054359436,1.6849501132965088
1752116326175039000,12.6870390625,8.380949974060059,-2.253000020980835,1.9699500799179077
1752116326184892400,12.696892333984374,9.097050666809082,-1.9579501152038574,0.9930000305175781
1752116326194746400,12.706746337890625,9.217050552368164,-1.3650000095367432,1.5079500675201416
1752116326204600000,12.71660009765625,8.194050788879395,-0.7350000143051147,2.0899500846862793
1752116326214453800,12.726453857421875,8.407050132751465,-0.012000000104308128,2.0059502124786377
1752116326224307500,12.736307373046875,10.00200080871582,0.322050005197525,1.4050500392913818
1752116326234161200,12.7461611328125,9.918000221252441,-0.11505000293254852,1.696950078010559
1752116326244014800,12.756014892578126,9.732000350952148,-1.0219500064849854,1.6320000886917114
1752116326253868800,12.765868896484376,11.380950927734375,-1.6950000524520874,0.2650500237941742
1752116326263722200,12.77572216796875,11.06505012512207,-2.052000045776367,1.6470000743865967
1752116326273576000,12.785575927734374,9.949050903320312,-2.3530499935150146,2.616000175476074
1752116326283429600,12.7954296875,9.463050842285156,-2.4850502014160156,1.963050127029419
1752116326293283600,12.80528369140625,9.355950355529785,-2.1000001430511475,1.8550500869750977
1752116326303137300,12.81513720703125,7.948050498962402,-1.7449500560760498,2.9160001277923584
1752116326312991000,12.824990966796875,7.663050174713135,-1.9030500650405884,1.6639500856399536
